PE UV       SUBTECH     SPECTRUM    ASCII       PEDS        4.00        
   -1
Borofloat.Sample.Raw.asc
17/06/21
15:02:49.00
17/06/21
15:02:49.00
Administrator

250.000000
1
Lambda 950
950L1205241
PerkinElmer UV WinLab 6.0.4.0738 / 1.61.00 Lambda 900

0
0
3350/servo 860.8/2
0
0
UV/VIS
1
1
1
DoublePol,CommonBeamDepol,RBeamAtt,SBeamAtt,uv/vis/nir detector
0
0
0
0
Program
Program
3350/servo 860.8/2
3350/0.2 860.8/0.2
3350/0.2 860.8/0.2
0
1
 
 
 
0
 
860.8
319.2
860.8
Front
100
on
S:100 R:100
0
0
0
0
 
0
 
 
 
0
 
 
0
0
0
0
0
 
 
 
 
0
0


0
0
#HDR
-1
-1
#GR
nm
%T
1.0
0.0
3300.000000
-1.000000
3051
8
93.332436
20.634504
#DATA
3300.000000	66.243391
3299.000000	66.387958
3298.000000	66.303641
3297.000000	66.365706
3296.000000	66.272930
3295.000000	66.571482
3294.000000	66.521852
3293.000000	66.683577
3292.000000	66.945814
3291.000000	66.969955
3290.000000	67.085975
3289.000000	67.170682
3288.000000	67.240481
3287.000000	67.293269
3286.000000	67.262642
3285.000000	67.403324
3284.000000	67.448597
3283.000000	67.460435
3282.000000	67.596266
3281.000000	67.611503
3280.000000	67.585101
3279.000000	67.697800
3278.000000	67.733274
3277.000000	67.869863
3276.000000	67.859582
3275.000000	67.947116
3274.000000	68.054809
3273.000000	68.004281
3272.000000	68.152573
3271.000000	68.127568
3270.000000	68.136864
3269.000000	68.188115
3268.000000	68.227250
3267.000000	68.313203
3266.000000	68.249037
3265.000000	68.344354
3264.000000	68.381208
3263.000000	68.406757
3262.000000	68.466863
3261.000000	68.485957
3260.000000	68.558651
3259.000000	68.612234
3258.000000	68.585387
3257.000000	68.634621
3256.000000	68.644761
3255.000000	68.651141
3254.000000	68.694795
3253.000000	68.789194
3252.000000	68.806452
3251.000000	68.729987
3250.000000	68.744196
3249.000000	68.804232
3248.000000	68.803186
3247.000000	68.914117
3246.000000	68.871766
3245.000000	68.898762
3244.000000	68.885730
3243.000000	68.864092
3242.000000	68.918205
3241.000000	68.925776
3240.000000	68.913503
3239.000000	68.927751
3238.000000	68.989113
3237.000000	69.030355
3236.000000	68.950919
3235.000000	68.987954
3234.000000	69.000873
3233.000000	68.972843
3232.000000	68.960673
3231.000000	68.968483
3230.000000	69.010957
3229.000000	69.017132
3228.000000	68.964525
3227.000000	68.969651
3226.000000	68.955559
3225.000000	68.969745
3224.000000	68.969041
3223.000000	68.965286
3222.000000	68.984038
3221.000000	68.977844
3220.000000	68.942359
3219.000000	68.927787
3218.000000	68.897850
3217.000000	68.920875
3216.000000	68.910350
3215.000000	68.903635
3214.000000	68.865049
3213.000000	68.847524
3212.000000	68.832754
3211.000000	68.823798
3210.000000	68.835902
3209.000000	68.817709
3208.000000	68.805450
3207.000000	68.793633
3206.000000	68.759442
3205.000000	68.724301
3204.000000	68.712001
3203.000000	68.714473
3202.000000	68.725744
3201.000000	68.680639
3200.000000	68.633617
3199.000000	68.594333
3198.000000	68.551429
3197.000000	68.541932
3196.000000	68.552194
3195.000000	68.512573
3194.000000	68.447246
3193.000000	68.450151
3192.000000	68.448152
3191.000000	68.392733
3190.000000	68.360444
3189.000000	68.341223
3188.000000	68.318219
3187.000000	68.302133
3186.000000	68.273651
3185.000000	68.232628
3184.000000	68.197731
3183.000000	68.193399
3182.000000	68.159467
3181.000000	68.113354
3180.000000	68.113689
3179.000000	68.096044
3178.000000	68.038420
3177.000000	67.987605
3176.000000	67.958372
3175.000000	67.926980
3174.000000	67.880679
3173.000000	67.876378
3172.000000	67.851687
3171.000000	67.798212
3170.000000	67.797691
3169.000000	67.771923
3168.000000	67.722811
3167.000000	67.690730
3166.000000	67.680507
3165.000000	67.663958
3164.000000	67.592665
3163.000000	67.564467
3162.000000	67.538370
3161.000000	67.500998
3160.000000	67.470261
3159.000000	67.416458
3158.000000	67.375757
3157.000000	67.335643
3156.000000	67.314701
3155.000000	67.293403
3154.000000	67.229019
3153.000000	67.197081
3152.000000	67.180165
3151.000000	67.154905
3150.000000	67.106849
3149.000000	67.051896
3148.000000	67.049191
3147.000000	66.987002
3146.000000	66.942925
3145.000000	66.909135
3144.000000	66.845141
3143.000000	66.806297
3142.000000	66.765126
3141.000000	66.719540
3140.000000	66.694946
3139.000000	66.641631
3138.000000	66.621501
3137.000000	66.574308
3136.000000	66.511609
3135.000000	66.458751
3134.000000	66.438470
3133.000000	66.405702
3132.000000	66.352946
3131.000000	66.320998
3130.000000	66.281344
3129.000000	66.239640
3128.000000	66.209009
3127.000000	66.153464
3126.000000	66.102373
3125.000000	66.087500
3124.000000	66.044684
3123.000000	65.992662
3122.000000	65.936779
3121.000000	65.928897
3120.000000	65.892674
3119.000000	65.835594
3118.000000	65.803447
3117.000000	65.744121
3116.000000	65.708926
3115.000000	65.675692
3114.000000	65.623925
3113.000000	65.582495
3112.000000	65.517422
3111.000000	65.510587
3110.000000	65.454291
3109.000000	65.372984
3108.000000	65.325283
3107.000000	65.270795
3106.000000	65.231871
3105.000000	65.188543
3104.000000	65.181360
3103.000000	65.136574
3102.000000	65.082657
3101.000000	65.042836
3100.000000	64.999050
3099.000000	64.951357
3098.000000	64.899406
3097.000000	64.845675
3096.000000	64.804182
3095.000000	64.767723
3094.000000	64.711109
3093.000000	64.657111
3092.000000	64.612962
3091.000000	64.576701
3090.000000	64.512301
3089.000000	64.491965
3088.000000	64.461102
3087.000000	64.378283
3086.000000	64.355130
3085.000000	64.306120
3084.000000	64.256528
3083.000000	64.209865
3082.000000	64.165137
3081.000000	64.117962
3080.000000	64.070509
3079.000000	64.032539
3078.000000	63.964504
3077.000000	63.935794
3076.000000	63.888880
3075.000000	63.827592
3074.000000	63.767377
3073.000000	63.737691
3072.000000	63.703796
3071.000000	63.648533
3070.000000	63.594415
3069.000000	63.526584
3068.000000	63.467182
3067.000000	63.426000
3066.000000	63.379189
3065.000000	63.376352
3064.000000	63.309953
3063.000000	63.243520
3062.000000	63.226429
3061.000000	63.171069
3060.000000	63.133313
3059.000000	63.052550
3058.000000	63.023598
3057.000000	62.955016
3056.000000	62.921962
3055.000000	62.873547
3054.000000	62.813597
3053.000000	62.753842
3052.000000	62.732565
3051.000000	62.681145
3050.000000	62.631050
3049.000000	62.558360
3048.000000	62.518717
3047.000000	62.489601
3046.000000	62.431938
3045.000000	62.363300
3044.000000	62.298215
3043.000000	62.238702
3042.000000	62.188030
3041.000000	62.129996
3040.000000	62.093748
3039.000000	62.034178
3038.000000	61.984603
3037.000000	61.918569
3036.000000	61.878314
3035.000000	61.822967
3034.000000	61.746006
3033.000000	61.688130
3032.000000	61.639824
3031.000000	61.582610
3030.000000	61.532944
3029.000000	61.493815
3028.000000	61.441113
3027.000000	61.382582
3026.000000	61.301560
3025.000000	61.253845
3024.000000	61.203395
3023.000000	61.139787
3022.000000	61.089487
3021.000000	61.033825
3020.000000	60.996038
3019.000000	60.900249
3018.000000	60.842129
3017.000000	60.794739
3016.000000	60.737745
3015.000000	60.691897
3014.000000	60.624157
3013.000000	60.553269
3012.000000	60.488749
3011.000000	60.429244
3010.000000	60.358014
3009.000000	60.309261
3008.000000	60.249190
3007.000000	60.195278
3006.000000	60.136098
3005.000000	60.079304
3004.000000	60.007815
3003.000000	59.946168
3002.000000	59.879606
3001.000000	59.827981
3000.000000	59.770866
2999.000000	59.697145
2998.000000	59.634799
2997.000000	59.566873
2996.000000	59.495388
2995.000000	59.434715
2994.000000	59.365877
2993.000000	59.304961
2992.000000	59.216584
2991.000000	59.148310
2990.000000	59.086311
2989.000000	59.023978
2988.000000	58.955484
2987.000000	58.873250
2986.000000	58.817677
2985.000000	58.763302
2984.000000	58.691456
2983.000000	58.630070
2982.000000	58.569339
2981.000000	58.504618
2980.000000	58.437438
2979.000000	58.360888
2978.000000	58.289540
2977.000000	58.220754
2976.000000	58.160346
2975.000000	58.083914
2974.000000	58.008697
2973.000000	57.930555
2972.000000	57.844897
2971.000000	57.763822
2970.000000	57.688418
2969.000000	57.617231
2968.000000	57.531022
2967.000000	57.460378
2966.000000	57.382164
2965.000000	57.299855
2964.000000	57.231934
2963.000000	57.147025
2962.000000	57.066464
2961.000000	57.001191
2960.000000	56.923414
2959.000000	56.847157
2958.000000	56.769445
2957.000000	56.691428
2956.000000	56.614444
2955.000000	56.540525
2954.000000	56.475853
2953.000000	56.428580
2952.000000	56.394684
2951.000000	56.341070
2950.000000	56.270809
2949.000000	56.178192
2948.000000	56.066077
2947.000000	55.954034
2946.000000	55.847872
2945.000000	55.754415
2944.000000	55.672157
2943.000000	55.591466
2942.000000	55.507331
2941.000000	55.402800
2940.000000	55.296625
2939.000000	55.208594
2938.000000	55.127684
2937.000000	55.042277
2936.000000	54.946032
2935.000000	54.853182
2934.000000	54.769688
2933.000000	54.679722
2932.000000	54.572476
2931.000000	54.478837
2930.000000	54.402529
2929.000000	54.310123
2928.000000	54.216775
2927.000000	54.127678
2926.000000	54.026508
2925.000000	53.929889
2924.000000	53.835394
2923.000000	53.729890
2922.000000	53.620486
2921.000000	53.510078
2920.000000	53.401990
2919.000000	53.309555
2918.000000	53.213416
2917.000000	53.096384
2916.000000	52.989869
2915.000000	52.892092
2914.000000	52.803354
2913.000000	52.715634
2912.000000	52.597453
2911.000000	52.486738
2910.000000	52.407434
2909.000000	52.318958
2908.000000	52.213096
2907.000000	52.103887
2906.000000	52.002747
2905.000000	51.902797
2904.000000	51.787889
2903.000000	51.671025
2902.000000	51.552767
2901.000000	51.439748
2900.000000	51.324257
2899.000000	51.206683
2898.000000	51.088512
2897.000000	50.976895
2896.000000	50.864677
2895.000000	50.748748
2894.000000	50.651937
2893.000000	50.555698
2892.000000	50.440041
2891.000000	50.314883
2890.000000	50.214373
2889.000000	50.102472
2888.000000	49.975882
2887.000000	49.865554
2886.000000	49.748151
2885.000000	49.633963
2884.000000	49.521402
2883.000000	49.391032
2882.000000	49.262093
2881.000000	49.154817
2880.000000	49.043520
2879.000000	48.921291
2878.000000	48.795102
2877.000000	48.669451
2876.000000	48.562919
2875.000000	48.458267
2874.000000	48.343758
2873.000000	48.224355
2872.000000	48.091299
2871.000000	47.955134
2870.000000	47.819872
2869.000000	47.689112
2868.000000	47.543822
2867.000000	47.395817
2866.000000	47.282572
2865.000000	47.155468
2864.000000	47.035344
2863.000000	46.908979
2862.000000	46.793624
2861.000000	46.677590
2860.000000	46.558600
2859.000000	46.435296
2858.000000	46.319631
2857.000000	46.198794
2856.000000	46.072901
2855.000000	45.917261
2854.000000	45.745907
2853.000000	45.589355
2852.000000	45.428747
2851.000000	45.257788
2850.000000	45.098896
2849.000000	44.934617
2848.000000	44.795421
2847.000000	44.665348
2846.000000	44.534865
2845.000000	44.418131
2844.000000	44.285595
2843.000000	44.158758
2842.000000	44.061166
2841.000000	43.943117
2840.000000	43.826444
2839.000000	43.684192
2838.000000	43.514705
2837.000000	43.335869
2836.000000	43.139625
2835.000000	42.975221
2834.000000	42.796986
2833.000000	42.603903
2832.000000	42.403786
2831.000000	42.207619
2830.000000	42.042810
2829.000000	41.915592
2828.000000	41.812960
2827.000000	41.720651
2826.000000	41.614429
2825.000000	41.486434
2824.000000	41.336277
2823.000000	41.204323
2822.000000	41.079097
2821.000000	40.904379
2820.000000	40.709088
2819.000000	40.490670
2818.000000	40.263328
2817.000000	40.078793
2816.000000	39.881275
2815.000000	39.726348
2814.000000	39.585596
2813.000000	39.435430
2812.000000	39.257037
2811.000000	39.149045
2810.000000	39.046004
2809.000000	38.946089
2808.000000	38.852829
2807.000000	38.740051
2806.000000	38.540407
2805.000000	38.337181
2804.000000	38.103372
2803.000000	37.905456
2802.000000	37.686639
2801.000000	37.470039
2800.000000	37.255340
2799.000000	37.098869
2798.000000	36.957769
2797.000000	36.818412
2796.000000	36.721734
2795.000000	36.637118
2794.000000	36.551462
2793.000000	36.469548
2792.000000	36.386763
2791.000000	36.282460
2790.000000	36.187365
2789.000000	36.058218
2788.000000	35.917176
2787.000000	35.721128
2786.000000	35.557709
2785.000000	35.376538
2784.000000	35.212473
2783.000000	35.084680
2782.000000	35.009418
2781.000000	34.892504
2780.000000	34.755623
2779.000000	34.601174
2778.000000	34.498010
2777.000000	34.414299
2776.000000	34.351580
2775.000000	34.300062
2774.000000	34.260367
2773.000000	34.221716
2772.000000	34.184533
2771.000000	34.141898
2770.000000	34.053738
2769.000000	33.967232
2768.000000	33.918174
2767.000000	33.889195
2766.000000	33.869317
2765.000000	33.850650
2764.000000	33.852032
2763.000000	33.863995
2762.000000	33.878614
2761.000000	33.879993
2760.000000	33.899141
2759.000000	33.943925
2758.000000	33.986276
2757.000000	34.077009
2756.000000	34.223734
2755.000000	34.395372
2754.000000	34.564737
2753.000000	34.709331
2752.000000	34.876535
2751.000000	35.044793
2750.000000	35.229477
2749.000000	35.462411
2748.000000	35.678425
2747.000000	35.868185
2746.000000	36.043962
2745.000000	36.232139
2744.000000	36.469050
2743.000000	36.756279
2742.000000	37.106768
2741.000000	37.518602
2740.000000	38.045344
2739.000000	38.685038
2738.000000	39.369900
2737.000000	40.161782
2736.000000	41.016826
2735.000000	41.833309
2734.000000	42.571284
2733.000000	43.179750
2732.000000	43.703319
2731.000000	44.157358
2730.000000	44.633902
2729.000000	45.170859
2728.000000	45.765313
2727.000000	46.365774
2726.000000	46.910860
2725.000000	47.441036
2724.000000	48.149771
2723.000000	49.061144
2722.000000	50.133629
2721.000000	51.392507
2720.000000	52.752863
2719.000000	54.135383
2718.000000	55.520394
2717.000000	56.887773
2716.000000	58.197164
2715.000000	59.389027
2714.000000	60.465267
2713.000000	61.434820
2712.000000	62.357775
2711.000000	63.334021
2710.000000	64.373765
2709.000000	65.419954
2708.000000	66.522718
2707.000000	67.708266
2706.000000	68.905183
2705.000000	70.069821
2704.000000	71.138225
2703.000000	71.997006
2702.000000	72.697327
2701.000000	73.309010
2700.000000	73.935112
2699.000000	74.625665
2698.000000	75.385096
2697.000000	76.279434
2696.000000	77.191268
2695.000000	78.095943
2694.000000	78.959609
2693.000000	79.817549
2692.000000	80.660166
2691.000000	81.407773
2690.000000	82.059080
2689.000000	82.687905
2688.000000	83.245461
2687.000000	83.697340
2686.000000	84.077618
2685.000000	84.386127
2684.000000	84.656844
2683.000000	84.876542
2682.000000	85.099424
2681.000000	85.324496
2680.000000	85.504216
2679.000000	85.687951
2678.000000	85.962466
2677.000000	86.207406
2676.000000	86.383771
2675.000000	86.519521
2674.000000	86.650737
2673.000000	86.801533
2672.000000	86.976627
2671.000000	87.145533
2670.000000	87.320127
2669.000000	87.495190
2668.000000	87.655205
2667.000000	87.809128
2666.000000	87.953612
2665.000000	88.087232
2664.000000	88.184340
2663.000000	88.259457
2662.000000	88.334826
2661.000000	88.402970
2660.000000	88.462390
2659.000000	88.506865
2658.000000	88.527412
2657.000000	88.539689
2656.000000	88.555656
2655.000000	88.571249
2654.000000	88.589314
2653.000000	88.583625
2652.000000	88.586344
2651.000000	88.607458
2650.000000	88.603006
2649.000000	88.616036
2648.000000	88.654776
2647.000000	88.667638
2646.000000	88.656270
2645.000000	88.682217
2644.000000	88.691668
2643.000000	88.715886
2642.000000	88.746424
2641.000000	88.739736
2640.000000	88.766865
2639.000000	88.843207
2638.000000	88.878702
2637.000000	88.886134
2636.000000	88.902675
2635.000000	88.941087
2634.000000	88.962823
2633.000000	88.961661
2632.000000	88.921213
2631.000000	88.886888
2630.000000	88.863416
2629.000000	88.861074
2628.000000	88.876772
2627.000000	88.892453
2626.000000	88.862077
2625.000000	88.872070
2624.000000	88.892306
2623.000000	88.915228
2622.000000	88.931700
2621.000000	88.958541
2620.000000	88.984876
2619.000000	88.989851
2618.000000	88.979834
2617.000000	88.964160
2616.000000	88.963568
2615.000000	88.933892
2614.000000	88.952777
2613.000000	88.958791
2612.000000	88.931556
2611.000000	88.902407
2610.000000	88.875906
2609.000000	88.809993
2608.000000	88.809111
2607.000000	88.802953
2606.000000	88.782481
2605.000000	88.813866
2604.000000	88.803548
2603.000000	88.812884
2602.000000	88.816681
2601.000000	88.833373
2600.000000	88.884643
2599.000000	88.927428
2598.000000	88.942154
2597.000000	88.991912
2596.000000	89.019405
2595.000000	89.036088
2594.000000	89.026974
2593.000000	89.014505
2592.000000	89.021822
2591.000000	89.014776
2590.000000	89.009014
2589.000000	89.001056
2588.000000	88.994920
2587.000000	88.974332
2586.000000	88.975201
2585.000000	88.954160
2584.000000	88.972054
2583.000000	88.994035
2582.000000	89.008445
2581.000000	88.967727
2580.000000	89.007959
2579.000000	89.017965
2578.000000	89.006359
2577.000000	89.031967
2576.000000	89.045213
2575.000000	89.053721
2574.000000	89.073585
2573.000000	89.081042
2572.000000	89.121719
2571.000000	89.085265
2570.000000	89.061426
2569.000000	89.076699
2568.000000	89.071150
2567.000000	89.086630
2566.000000	89.066200
2565.000000	89.063787
2564.000000	89.072540
2563.000000	89.068511
2562.000000	89.024250
2561.000000	89.020813
2560.000000	89.009190
2559.000000	89.039728
2558.000000	89.052621
2557.000000	89.069905
2556.000000	89.084980
2555.000000	89.120730
2554.000000	89.185416
2553.000000	89.249675
2552.000000	89.271644
2551.000000	89.246697
2550.000000	89.188802
2549.000000	89.153276
2548.000000	89.154790
2547.000000	89.162335
2546.000000	89.153278
2545.000000	89.191374
2544.000000	89.216574
2543.000000	89.231436
2542.000000	89.251140
2541.000000	89.271909
2540.000000	89.278528
2539.000000	89.236907
2538.000000	89.257212
2537.000000	89.268750
2536.000000	89.296291
2535.000000	89.307015
2534.000000	89.339919
2533.000000	89.355766
2532.000000	89.376528
2531.000000	89.396763
2530.000000	89.399673
2529.000000	89.395314
2528.000000	89.398797
2527.000000	89.428143
2526.000000	89.426473
2525.000000	89.440389
2524.000000	89.431818
2523.000000	89.461321
2522.000000	89.451562
2521.000000	89.475671
2520.000000	89.515757
2519.000000	89.553752
2518.000000	89.569519
2517.000000	89.602881
2516.000000	89.608465
2515.000000	89.608362
2514.000000	89.598870
2513.000000	89.580589
2512.000000	89.605984
2511.000000	89.629866
2510.000000	89.663481
2509.000000	89.663694
2508.000000	89.691008
2507.000000	89.708982
2506.000000	89.715898
2505.000000	89.728647
2504.000000	89.754977
2503.000000	89.756686
2502.000000	89.783174
2501.000000	89.809918
2500.000000	89.828016
2499.000000	89.828986
2498.000000	89.863614
2497.000000	89.862086
2496.000000	89.875533
2495.000000	89.879935
2494.000000	89.908275
2493.000000	89.911393
2492.000000	89.932514
2491.000000	89.941192
2490.000000	89.963157
2489.000000	89.953578
2488.000000	89.981384
2487.000000	90.025027
2486.000000	90.055864
2485.000000	90.034026
2484.000000	90.043747
2483.000000	90.046657
2482.000000	90.078474
2481.000000	90.079174
2480.000000	90.063385
2479.000000	90.109783
2478.000000	90.135890
2477.000000	90.137964
2476.000000	90.147812
2475.000000	90.169792
2474.000000	90.170603
2473.000000	90.182371
2472.000000	90.193319
2471.000000	90.204693
2470.000000	90.218132
2469.000000	90.231137
2468.000000	90.235396
2467.000000	90.246667
2466.000000	90.277355
2465.000000	90.283750
2464.000000	90.296819
2463.000000	90.313999
2462.000000	90.315876
2461.000000	90.329190
2460.000000	90.332292
2459.000000	90.338499
2458.000000	90.354998
2457.000000	90.361525
2456.000000	90.385078
2455.000000	90.401725
2454.000000	90.408214
2453.000000	90.411293
2452.000000	90.425116
2451.000000	90.416795
2450.000000	90.438124
2449.000000	90.448079
2448.000000	90.464492
2447.000000	90.465482
2446.000000	90.467880
2445.000000	90.468353
2444.000000	90.478985
2443.000000	90.500790
2442.000000	90.508318
2441.000000	90.525337
2440.000000	90.526037
2439.000000	90.536912
2438.000000	90.539088
2437.000000	90.548553
2436.000000	90.549207
2435.000000	90.556490
2434.000000	90.559681
2433.000000	90.555980
2432.000000	90.565651
2431.000000	90.575729
2430.000000	90.589546
2429.000000	90.601788
2428.000000	90.596520
2427.000000	90.591404
2426.000000	90.606459
2425.000000	90.614634
2424.000000	90.618676
2423.000000	90.607728
2422.000000	90.608098
2421.000000	90.626009
2420.000000	90.644778
2419.000000	90.646492
2418.000000	90.640929
2417.000000	90.647569
2416.000000	90.657842
2415.000000	90.658519
2414.000000	90.652473
2413.000000	90.656380
2412.000000	90.666021
2411.000000	90.665932
2410.000000	90.672672
2409.000000	90.695848
2408.000000	90.701053
2407.000000	90.701119
2406.000000	90.714654
2405.000000	90.717295
2404.000000	90.722559
2403.000000	90.725075
2402.000000	90.739378
2401.000000	90.760880
2400.000000	90.773844
2399.000000	90.789645
2398.000000	90.806813
2397.000000	90.821293
2396.000000	90.826000
2395.000000	90.847909
2394.000000	90.876912
2393.000000	90.900892
2392.000000	90.907305
2391.000000	90.930519
2390.000000	90.945795
2389.000000	90.960905
2388.000000	90.984898
2387.000000	91.014163
2386.000000	91.040350
2385.000000	91.060572
2384.000000	91.090512
2383.000000	91.117199
2382.000000	91.148132
2381.000000	91.187838
2380.000000	91.207727
2379.000000	91.238888
2378.000000	91.258136
2377.000000	91.279766
2376.000000	91.310873
2375.000000	91.342371
2374.000000	91.373589
2373.000000	91.401085
2372.000000	91.431372
2371.000000	91.446223
2370.000000	91.472972
2369.000000	91.499572
2368.000000	91.538455
2367.000000	91.555115
2366.000000	91.581146
2365.000000	91.622263
2364.000000	91.637263
2363.000000	91.673939
2362.000000	91.692333
2361.000000	91.714076
2360.000000	91.733757
2359.000000	91.749224
2358.000000	91.763787
2357.000000	91.774841
2356.000000	91.803578
2355.000000	91.810241
2354.000000	91.832359
2353.000000	91.841600
2352.000000	91.853867
2351.000000	91.885311
2350.000000	91.884383
2349.000000	91.886300
2348.000000	91.901688
2347.000000	91.916378
2346.000000	91.939576
2345.000000	91.966720
2344.000000	91.975660
2343.000000	91.978027
2342.000000	91.992883
2341.000000	92.001116
2340.000000	92.000495
2339.000000	92.028023
2338.000000	92.045133
2337.000000	92.055878
2336.000000	92.059201
2335.000000	92.052495
2334.000000	92.076409
2333.000000	92.074836
2332.000000	92.081475
2331.000000	92.086410
2330.000000	92.097923
2329.000000	92.130375
2328.000000	92.119821
2327.000000	92.136739
2326.000000	92.133731
2325.000000	92.141818
2324.000000	92.167532
2323.000000	92.132033
2322.000000	92.173346
2321.000000	92.172499
2320.000000	92.172534
2319.000000	92.190282
2318.000000	92.170217
2317.000000	92.226053
2316.000000	92.198190
2315.000000	92.212682
2314.000000	92.201473
2313.000000	92.216592
2312.000000	92.216591
2311.000000	92.211709
2310.000000	92.237192
2309.000000	92.222242
2308.000000	92.228856
2307.000000	92.238675
2306.000000	92.223575
2305.000000	92.222236
2304.000000	92.238453
2303.000000	92.230282
2302.000000	92.242818
2301.000000	92.220652
2300.000000	92.232934
2299.000000	92.243458
2298.000000	92.237937
2297.000000	92.239476
2296.000000	92.233544
2295.000000	92.251906
2294.000000	92.259250
2293.000000	92.240959
2292.000000	92.257803
2291.000000	92.246835
2290.000000	92.252977
2289.000000	92.268529
2288.000000	92.247376
2287.000000	92.265581
2286.000000	92.253376
2285.000000	92.250030
2284.000000	92.272382
2283.000000	92.238944
2282.000000	92.252592
2281.000000	92.244040
2280.000000	92.206223
2279.000000	92.234595
2278.000000	92.207554
2277.000000	92.217918
2276.000000	92.232477
2275.000000	92.203874
2274.000000	92.217802
2273.000000	92.214481
2272.000000	92.212579
2271.000000	92.212377
2270.000000	92.207140
2269.000000	92.198280
2268.000000	92.189694
2267.000000	92.191934
2266.000000	92.200063
2265.000000	92.191994
2264.000000	92.163456
2263.000000	92.158771
2262.000000	92.139214
2261.000000	92.142501
2260.000000	92.137438
2259.000000	92.121528
2258.000000	92.110818
2257.000000	92.121239
2256.000000	92.091464
2255.000000	92.099955
2254.000000	92.077074
2253.000000	92.081018
2252.000000	92.097377
2251.000000	92.083321
2250.000000	92.053148
2249.000000	92.048466
2248.000000	92.052421
2247.000000	92.038830
2246.000000	92.036026
2245.000000	92.028220
2244.000000	92.039193
2243.000000	92.019098
2242.000000	92.009142
2241.000000	92.004427
2240.000000	92.008270
2239.000000	91.995470
2238.000000	91.982709
2237.000000	91.957468
2236.000000	91.950588
2235.000000	91.954321
2234.000000	91.945549
2233.000000	91.937679
2232.000000	91.916020
2231.000000	91.902861
2230.000000	91.891909
2229.000000	91.892836
2228.000000	91.871999
2227.000000	91.859101
2226.000000	91.841617
2225.000000	91.856565
2224.000000	91.831111
2223.000000	91.806891
2222.000000	91.792712
2221.000000	91.791662
2220.000000	91.776298
2219.000000	91.770659
2218.000000	91.765007
2217.000000	91.757668
2216.000000	91.739607
2215.000000	91.719715
2214.000000	91.714554
2213.000000	91.726901
2212.000000	91.733337
2211.000000	91.741596
2210.000000	91.750182
2209.000000	91.764245
2208.000000	91.754647
2207.000000	91.774489
2206.000000	91.779846
2205.000000	91.784096
2204.000000	91.806624
2203.000000	91.831708
2202.000000	91.863271
2201.000000	91.882052
2200.000000	91.899799
2199.000000	91.928858
2198.000000	91.951899
2197.000000	91.976702
2196.000000	92.003598
2195.000000	92.025047
2194.000000	92.050460
2193.000000	92.074361
2192.000000	92.097735
2191.000000	92.110310
2190.000000	92.120715
2189.000000	92.134468
2188.000000	92.147814
2187.000000	92.157868
2186.000000	92.168248
2185.000000	92.188298
2184.000000	92.188364
2183.000000	92.184809
2182.000000	92.188270
2181.000000	92.224569
2180.000000	92.244552
2179.000000	92.239284
2178.000000	92.245959
2177.000000	92.245845
2176.000000	92.250451
2175.000000	92.274101
2174.000000	92.289529
2173.000000	92.288753
2172.000000	92.312391
2171.000000	92.317500
2170.000000	92.317698
2169.000000	92.331184
2168.000000	92.351802
2167.000000	92.361586
2166.000000	92.351840
2165.000000	92.349253
2164.000000	92.356910
2163.000000	92.366228
2162.000000	92.373254
2161.000000	92.379071
2160.000000	92.377627
2159.000000	92.359089
2158.000000	92.351717
2157.000000	92.368979
2156.000000	92.374498
2155.000000	92.384754
2154.000000	92.395822
2153.000000	92.398310
2152.000000	92.392299
2151.000000	92.386338
2150.000000	92.394942
2149.000000	92.406182
2148.000000	92.401219
2147.000000	92.393501
2146.000000	92.396431
2145.000000	92.399788
2144.000000	92.405620
2143.000000	92.432074
2142.000000	92.435265
2141.000000	92.433282
2140.000000	92.450714
2139.000000	92.467400
2138.000000	92.482694
2137.000000	92.512052
2136.000000	92.520121
2135.000000	92.522814
2134.000000	92.542573
2133.000000	92.546676
2132.000000	92.574024
2131.000000	92.610962
2130.000000	92.620349
2129.000000	92.636661
2128.000000	92.660998
2127.000000	92.675866
2126.000000	92.692391
2125.000000	92.702711
2124.000000	92.719570
2123.000000	92.738390
2122.000000	92.749599
2121.000000	92.744372
2120.000000	92.776577
2119.000000	92.796861
2118.000000	92.793356
2117.000000	92.807395
2116.000000	92.831773
2115.000000	92.850985
2114.000000	92.854213
2113.000000	92.874285
2112.000000	92.877612
2111.000000	92.895541
2110.000000	92.918495
2109.000000	92.913513
2108.000000	92.919424
2107.000000	92.923248
2106.000000	92.920888
2105.000000	92.934687
2104.000000	92.926680
2103.000000	92.943757
2102.000000	92.974831
2101.000000	92.959310
2100.000000	92.959177
2099.000000	92.965088
2098.000000	92.971318
2097.000000	92.986805
2096.000000	92.985253
2095.000000	92.996266
2094.000000	92.986563
2093.000000	92.998159
2092.000000	93.018835
2091.000000	93.019992
2090.000000	93.018089
2089.000000	93.020309
2088.000000	93.004005
2087.000000	93.028896
2086.000000	93.057253
2085.000000	93.050595
2084.000000	93.049962
2083.000000	93.042106
2082.000000	93.054329
2081.000000	93.044757
2080.000000	93.055670
2079.000000	93.067886
2078.000000	93.066067
2077.000000	93.063798
2076.000000	93.059513
2075.000000	93.064150
2074.000000	93.075169
2073.000000	93.066921
2072.000000	93.071110
2071.000000	93.066914
2070.000000	93.072968
2069.000000	93.072050
2068.000000	93.062762
2067.000000	93.072917
2066.000000	93.074612
2065.000000	93.076388
2064.000000	93.064345
2063.000000	93.067118
2062.000000	93.076273
2061.000000	93.066894
2060.000000	93.076664
2059.000000	93.065835
2058.000000	93.074934
2057.000000	93.068485
2056.000000	93.065348
2055.000000	93.073920
2054.000000	93.091869
2053.000000	93.102795
2052.000000	93.113273
2051.000000	93.106804
2050.000000	93.095506
2049.000000	93.084021
2048.000000	93.096801
2047.000000	93.094380
2046.000000	93.110744
2045.000000	93.091359
2044.000000	93.095629
2043.000000	93.104483
2042.000000	93.089328
2041.000000	93.090678
2040.000000	93.084977
2039.000000	93.088085
2038.000000	93.087707
2037.000000	93.089698
2036.000000	93.095481
2035.000000	93.118280
2034.000000	93.125925
2033.000000	93.120957
2032.000000	93.075592
2031.000000	93.065812
2030.000000	93.094295
2029.000000	93.101046
2028.000000	93.100452
2027.000000	93.068733
2026.000000	93.069151
2025.000000	93.082425
2024.000000	93.095797
2023.000000	93.088366
2022.000000	93.064462
2021.000000	93.074461
2020.000000	93.078402
2019.000000	93.050909
2018.000000	93.056910
2017.000000	93.072261
2016.000000	93.060574
2015.000000	93.043722
2014.000000	93.064300
2013.000000	93.047029
2012.000000	93.061940
2011.000000	93.058099
2010.000000	93.085808
2009.000000	93.064708
2008.000000	93.049046
2007.000000	93.072636
2006.000000	93.075477
2005.000000	93.065190
2004.000000	93.026467
2003.000000	93.018809
2002.000000	93.024965
2001.000000	93.048321
2000.000000	93.055029
1999.000000	93.046068
1998.000000	93.058514
1997.000000	93.054528
1996.000000	93.072414
1995.000000	93.058033
1994.000000	93.037512
1993.000000	93.024885
1992.000000	93.043620
1991.000000	93.037610
1990.000000	93.020045
1989.000000	93.020515
1988.000000	93.036629
1987.000000	93.075477
1986.000000	93.086042
1985.000000	93.083306
1984.000000	93.082221
1983.000000	93.078911
1982.000000	93.071033
1981.000000	93.075782
1980.000000	93.100906
1979.000000	93.098710
1978.000000	93.081386
1977.000000	93.080968
1976.000000	93.094595
1975.000000	93.109606
1974.000000	93.114835
1973.000000	93.101416
1972.000000	93.107381
1971.000000	93.090791
1970.000000	93.073704
1969.000000	93.090260
1968.000000	93.085641
1967.000000	93.099159
1966.000000	93.127628
1965.000000	93.128076
1964.000000	93.141256
1963.000000	93.154968
1962.000000	93.138396
1961.000000	93.134830
1960.000000	93.148309
1959.000000	93.160918
1958.000000	93.148998
1957.000000	93.137036
1956.000000	93.142255
1955.000000	93.166434
1954.000000	93.133939
1953.000000	93.142225
1952.000000	93.140114
1951.000000	93.155664
1950.000000	93.142831
1949.000000	93.142251
1948.000000	93.203430
1947.000000	93.154531
1946.000000	93.149275
1945.000000	93.155630
1944.000000	93.158365
1943.000000	93.156176
1942.000000	93.174314
1941.000000	93.238543
1940.000000	93.236406
1939.000000	93.197176
1938.000000	93.188068
1937.000000	93.153476
1936.000000	93.133934
1935.000000	93.146193
1934.000000	93.172530
1933.000000	93.195677
1932.000000	93.215286
1931.000000	93.169628
1930.000000	93.148480
1929.000000	93.180643
1928.000000	93.162733
1927.000000	93.139893
1926.000000	93.133734
1925.000000	93.137885
1924.000000	93.155720
1923.000000	93.180829
1922.000000	93.193334
1921.000000	93.216760
1920.000000	93.211178
1919.000000	93.178725
1918.000000	93.183516
1917.000000	93.169768
1916.000000	93.190377
1915.000000	93.212297
1914.000000	93.197580
1913.000000	93.173180
1912.000000	93.166584
1911.000000	93.168563
1910.000000	93.126070
1909.000000	93.128387
1908.000000	93.188458
1907.000000	93.175514
1906.000000	93.144562
1905.000000	93.142111
1904.000000	93.134894
1903.000000	93.116870
1902.000000	93.145674
1901.000000	93.207006
1900.000000	93.245586
1899.000000	93.223066
1898.000000	93.163896
1897.000000	93.149111
1896.000000	93.175906
1895.000000	93.215929
1894.000000	93.250637
1893.000000	93.254590
1892.000000	93.231235
1891.000000	93.193176
1890.000000	93.164741
1889.000000	93.174676
1888.000000	93.147561
1887.000000	93.152460
1886.000000	93.144610
1885.000000	93.151745
1884.000000	93.206576
1883.000000	93.233603
1882.000000	93.207402
1881.000000	93.183021
1880.000000	93.200876
1879.000000	93.202746
1878.000000	93.232718
1877.000000	93.259588
1876.000000	93.247822
1875.000000	93.197257
1874.000000	93.171287
1873.000000	93.183603
1872.000000	93.191644
1871.000000	93.174166
1870.000000	93.174854
1869.000000	93.183466
1868.000000	93.170478
1867.000000	93.177356
1866.000000	93.189646
1865.000000	93.215113
1864.000000	93.220974
1863.000000	93.224966
1862.000000	93.214721
1861.000000	93.052678
1860.000000	93.164823
1859.000000	93.273843
1858.000000	93.246198
1857.000000	93.214094
1856.000000	93.158840
1855.000000	93.146712
1854.000000	93.192569
1853.000000	93.182374
1852.000000	93.170604
1851.000000	93.159196
1850.000000	93.196259
1849.000000	93.216855
1848.000000	93.269494
1847.000000	93.285808
1846.000000	93.209760
1845.000000	93.276813
1844.000000	93.226098
1843.000000	93.239057
1842.000000	93.332436
1841.000000	93.274210
1840.000000	93.173323
1839.000000	93.138617
1838.000000	93.127941
1837.000000	93.199097
1836.000000	93.182202
1835.000000	93.235513
1834.000000	93.185728
1833.000000	93.200363
1832.000000	93.219250
1831.000000	93.233504
1830.000000	93.267574
1829.000000	93.269248
1828.000000	93.221056
1827.000000	93.161885
1826.000000	93.124015
1825.000000	93.136101
1824.000000	93.183030
1823.000000	93.178448
1822.000000	93.262615
1821.000000	93.286978
1820.000000	93.279829
1819.000000	93.170485
1818.000000	93.139983
1817.000000	93.131019
1816.000000	93.234431
1815.000000	93.284272
1814.000000	93.223666
1813.000000	93.222711
1812.000000	93.179735
1811.000000	93.205780
1810.000000	93.202601
1809.000000	93.286162
1808.000000	93.190645
1807.000000	93.116308
1806.000000	93.201234
1805.000000	93.204730
1804.000000	93.191554
1803.000000	93.190244
1802.000000	93.178922
1801.000000	93.205086
1800.000000	93.182808
1799.000000	93.196202
1798.000000	93.219740
1797.000000	93.181122
1796.000000	93.202248
1795.000000	93.212017
1794.000000	93.196304
1793.000000	93.195406
1792.000000	93.194643
1791.000000	93.208558
1790.000000	93.201629
1789.000000	93.177081
1788.000000	93.198323
1787.000000	93.209614
1786.000000	93.217987
1785.000000	93.215359
1784.000000	93.235127
1783.000000	93.185296
1782.000000	93.189905
1781.000000	93.200707
1780.000000	93.200607
1779.000000	93.181745
1778.000000	93.190566
1777.000000	93.192159
1776.000000	93.228658
1775.000000	93.199026
1774.000000	93.204882
1773.000000	93.186385
1772.000000	93.197324
1771.000000	93.196821
1770.000000	93.198917
1769.000000	93.184405
1768.000000	93.188162
1767.000000	93.204463
1766.000000	93.192058
1765.000000	93.215543
1764.000000	93.190509
1763.000000	93.189843
1762.000000	93.187282
1761.000000	93.189507
1760.000000	93.195806
1759.000000	93.187035
1758.000000	93.208208
1757.000000	93.195723
1756.000000	93.180716
1755.000000	93.185948
1754.000000	93.176645
1753.000000	93.184607
1752.000000	93.195188
1751.000000	93.173828
1750.000000	93.176735
1749.000000	93.183758
1748.000000	93.184037
1747.000000	93.176018
1746.000000	93.191350
1745.000000	93.188150
1744.000000	93.182218
1743.000000	93.170061
1742.000000	93.193053
1741.000000	93.173266
1740.000000	93.152788
1739.000000	93.170557
1738.000000	93.173276
1737.000000	93.178889
1736.000000	93.191165
1735.000000	93.192794
1734.000000	93.191767
1733.000000	93.171881
1732.000000	93.181009
1731.000000	93.184756
1730.000000	93.178045
1729.000000	93.171409
1728.000000	93.175869
1727.000000	93.170346
1726.000000	93.167803
1725.000000	93.151814
1724.000000	93.168522
1723.000000	93.182413
1722.000000	93.196076
1721.000000	93.186219
1720.000000	93.188721
1719.000000	93.181411
1718.000000	93.175313
1717.000000	93.174818
1716.000000	93.171626
1715.000000	93.187649
1714.000000	93.179477
1713.000000	93.179162
1712.000000	93.193315
1711.000000	93.188009
1710.000000	93.179123
1709.000000	93.177321
1708.000000	93.167332
1707.000000	93.155514
1706.000000	93.156122
1705.000000	93.164050
1704.000000	93.165571
1703.000000	93.173464
1702.000000	93.176987
1701.000000	93.186849
1700.000000	93.183583
1699.000000	93.180089
1698.000000	93.179175
1697.000000	93.169037
1696.000000	93.174562
1695.000000	93.183522
1694.000000	93.176409
1693.000000	93.164874
1692.000000	93.171950
1691.000000	93.159989
1690.000000	93.150987
1689.000000	93.145123
1688.000000	93.135396
1687.000000	93.144873
1686.000000	93.141881
1685.000000	93.142012
1684.000000	93.143854
1683.000000	93.134478
1682.000000	93.139373
1681.000000	93.168981
1680.000000	93.166158
1679.000000	93.161981
1678.000000	93.162256
1677.000000	93.150987
1676.000000	93.148034
1675.000000	93.149679
1674.000000	93.144940
1673.000000	93.142347
1672.000000	93.152946
1671.000000	93.150146
1670.000000	93.140973
1669.000000	93.142973
1668.000000	93.141617
1667.000000	93.150889
1666.000000	93.150741
1665.000000	93.148295
1664.000000	93.154136
1663.000000	93.156972
1662.000000	93.164398
1661.000000	93.163557
1660.000000	93.163034
1659.000000	93.171915
1658.000000	93.165373
1657.000000	93.162160
1656.000000	93.156536
1655.000000	93.152517
1654.000000	93.159840
1653.000000	93.148556
1652.000000	93.141618
1651.000000	93.136339
1650.000000	93.137093
1649.000000	93.142270
1648.000000	93.137477
1647.000000	93.131162
1646.000000	93.131084
1645.000000	93.139099
1644.000000	93.142938
1643.000000	93.142005
1642.000000	93.141393
1641.000000	93.146275
1640.000000	93.143570
1639.000000	93.134298
1638.000000	93.129469
1637.000000	93.132175
1636.000000	93.133600
1635.000000	93.131671
1634.000000	93.127517
1633.000000	93.126019
1632.000000	93.136716
1631.000000	93.131353
1630.000000	93.125332
1629.000000	93.119651
1628.000000	93.116993
1627.000000	93.122774
1626.000000	93.130353
1625.000000	93.122753
1624.000000	93.123235
1623.000000	93.126464
1622.000000	93.131105
1621.000000	93.123501
1620.000000	93.106068
1619.000000	93.099218
1618.000000	93.083270
1617.000000	93.091722
1616.000000	93.110052
1615.000000	93.102178
1614.000000	93.110507
1613.000000	93.106924
1612.000000	93.111043
1611.000000	93.116554
1610.000000	93.112472
1609.000000	93.131602
1608.000000	93.135473
1607.000000	93.126374
1606.000000	93.117564
1605.000000	93.098833
1604.000000	93.089979
1603.000000	93.099980
1602.000000	93.111596
1601.000000	93.109278
1600.000000	93.105303
1599.000000	93.108354
1598.000000	93.096949
1597.000000	93.094841
1596.000000	93.090079
1595.000000	93.096233
1594.000000	93.097997
1593.000000	93.074451
1592.000000	93.087731
1591.000000	93.100282
1590.000000	93.106317
1589.000000	93.093961
1588.000000	93.087122
1587.000000	93.096697
1586.000000	93.091780
1585.000000	93.103754
1584.000000	93.091759
1583.000000	93.088519
1582.000000	93.088964
1581.000000	93.099247
1580.000000	93.102978
1579.000000	93.093223
1578.000000	93.092467
1577.000000	93.086107
1576.000000	93.098508
1575.000000	93.083668
1574.000000	93.066604
1573.000000	93.075516
1572.000000	93.073496
1571.000000	93.076289
1570.000000	93.075675
1569.000000	93.089600
1568.000000	93.073470
1567.000000	93.084494
1566.000000	93.086130
1565.000000	93.083997
1564.000000	93.089499
1563.000000	93.102576
1562.000000	93.071950
1561.000000	93.083133
1560.000000	93.089549
1559.000000	93.077031
1558.000000	93.062941
1557.000000	93.048144
1556.000000	93.067853
1555.000000	93.068985
1554.000000	93.073183
1553.000000	93.056294
1552.000000	93.057966
1551.000000	93.044782
1550.000000	93.066358
1549.000000	93.051121
1548.000000	93.063086
1547.000000	93.066045
1546.000000	93.054783
1545.000000	93.036012
1544.000000	93.050854
1543.000000	93.034096
1542.000000	93.054132
1541.000000	93.065934
1540.000000	93.049256
1539.000000	93.045681
1538.000000	93.052953
1537.000000	93.056986
1536.000000	93.039602
1535.000000	93.041612
1534.000000	93.055589
1533.000000	93.048778
1532.000000	93.044589
1531.000000	93.032323
1530.000000	93.035941
1529.000000	93.030789
1528.000000	93.033967
1527.000000	93.016168
1526.000000	93.024423
1525.000000	93.023241
1524.000000	93.032101
1523.000000	93.014107
1522.000000	93.004417
1521.000000	93.015683
1520.000000	93.006649
1519.000000	93.048027
1518.000000	93.033563
1517.000000	93.016801
1516.000000	93.013863
1515.000000	93.008141
1514.000000	93.013083
1513.000000	93.013609
1512.000000	92.997585
1511.000000	93.001051
1510.000000	93.010382
1509.000000	92.993889
1508.000000	92.986537
1507.000000	92.994477
1506.000000	93.022098
1505.000000	93.006069
1504.000000	93.011381
1503.000000	93.011971
1502.000000	93.000949
1501.000000	93.012184
1500.000000	93.008945
1499.000000	92.983559
1498.000000	92.983797
1497.000000	92.992451
1496.000000	92.984321
1495.000000	92.976494
1494.000000	92.990935
1493.000000	93.016232
1492.000000	93.005596
1491.000000	92.985902
1490.000000	92.976429
1489.000000	92.983747
1488.000000	92.980025
1487.000000	92.969129
1486.000000	92.978388
1485.000000	92.964634
1484.000000	92.956691
1483.000000	92.943498
1482.000000	92.969074
1481.000000	92.956420
1480.000000	92.970189
1479.000000	92.991486
1478.000000	92.955664
1477.000000	92.950888
1476.000000	92.958468
1475.000000	92.943707
1474.000000	92.953930
1473.000000	92.939597
1472.000000	92.942347
1471.000000	92.948133
1470.000000	92.943542
1469.000000	92.940552
1468.000000	92.939624
1467.000000	92.920044
1466.000000	92.894613
1465.000000	92.888800
1464.000000	92.892707
1463.000000	92.918233
1462.000000	92.926175
1461.000000	92.924230
1460.000000	92.913670
1459.000000	92.911528
1458.000000	92.907984
1457.000000	92.902508
1456.000000	92.885493
1455.000000	92.907194
1454.000000	92.928540
1453.000000	92.888408
1452.000000	92.876901
1451.000000	92.868554
1450.000000	92.868841
1449.000000	92.872729
1448.000000	92.851972
1447.000000	92.877026
1446.000000	92.945774
1445.000000	92.860537
1444.000000	92.797417
1443.000000	92.790734
1442.000000	92.826959
1441.000000	92.823418
1440.000000	92.830601
1439.000000	92.819914
1438.000000	92.822085
1437.000000	92.780514
1436.000000	92.735459
1435.000000	92.779537
1434.000000	92.777424
1433.000000	92.761032
1432.000000	92.751122
1431.000000	92.788294
1430.000000	92.826683
1429.000000	92.716305
1428.000000	92.703277
1427.000000	92.747435
1426.000000	92.737762
1425.000000	92.738839
1424.000000	92.722663
1423.000000	92.758645
1422.000000	92.747819
1421.000000	92.641459
1420.000000	92.711503
1419.000000	92.748968
1418.000000	92.665473
1417.000000	92.631553
1416.000000	92.605466
1415.000000	92.618654
1414.000000	92.638015
1413.000000	92.595243
1412.000000	92.545352
1411.000000	92.538664
1410.000000	92.552937
1409.000000	92.572153
1408.000000	92.573314
1407.000000	92.540856
1406.000000	92.502181
1405.000000	92.639506
1404.000000	92.652863
1403.000000	92.408169
1402.000000	92.392238
1401.000000	92.540962
1400.000000	92.578022
1399.000000	92.477110
1398.000000	92.424073
1397.000000	92.463732
1396.000000	92.534322
1395.000000	92.552196
1394.000000	92.502616
1393.000000	92.492447
1392.000000	92.535864
1391.000000	92.588919
1390.000000	92.607983
1389.000000	92.626729
1388.000000	92.679089
1387.000000	92.687912
1386.000000	92.661628
1385.000000	92.678129
1384.000000	92.741531
1383.000000	92.772227
1382.000000	92.785284
1381.000000	92.766636
1380.000000	92.755724
1379.000000	92.767853
1378.000000	92.777070
1377.000000	92.814914
1376.000000	92.839368
1375.000000	92.891674
1374.000000	92.884715
1373.000000	92.805310
1372.000000	92.858537
1371.000000	92.906785
1370.000000	92.889513
1369.000000	92.877518
1368.000000	92.871880
1367.000000	92.865930
1366.000000	92.876670
1365.000000	92.922001
1364.000000	92.925210
1363.000000	92.885160
1362.000000	92.903484
1361.000000	92.911399
1360.000000	92.853802
1359.000000	92.880930
1358.000000	92.910507
1357.000000	92.951979
1356.000000	92.943919
1355.000000	92.923955
1354.000000	92.920490
1353.000000	92.894937
1352.000000	92.883966
1351.000000	92.887980
1350.000000	92.895456
1349.000000	92.942581
1348.000000	93.000500
1347.000000	92.938802
1346.000000	92.903399
1345.000000	92.910040
1344.000000	92.903912
1343.000000	92.891571
1342.000000	92.892113
1341.000000	92.906429
1340.000000	92.906793
1339.000000	92.907139
1338.000000	92.901463
1337.000000	92.885523
1336.000000	92.891317
1335.000000	92.883351
1334.000000	92.884158
1333.000000	92.875308
1332.000000	92.860815
1331.000000	92.882613
1330.000000	92.878504
1329.000000	92.895139
1328.000000	92.897431
1327.000000	92.897467
1326.000000	92.888798
1325.000000	92.888695
1324.000000	92.888086
1323.000000	92.892432
1322.000000	92.897315
1321.000000	92.881692
1320.000000	92.873899
1319.000000	92.875218
1318.000000	92.883619
1317.000000	92.903917
1316.000000	92.909589
1315.000000	92.873379
1314.000000	92.880471
1313.000000	92.877287
1312.000000	92.871947
1311.000000	92.872929
1310.000000	92.876227
1309.000000	92.852974
1308.000000	92.859440
1307.000000	92.880477
1306.000000	92.860684
1305.000000	92.864948
1304.000000	92.880274
1303.000000	92.884030
1302.000000	92.884985
1301.000000	92.868610
1300.000000	92.863945
1299.000000	92.867684
1298.000000	92.863720
1297.000000	92.854350
1296.000000	92.860709
1295.000000	92.868490
1294.000000	92.887658
1293.000000	92.872674
1292.000000	92.868424
1291.000000	92.876461
1290.000000	92.859963
1289.000000	92.856674
1288.000000	92.869701
1287.000000	92.867423
1286.000000	92.878138
1285.000000	92.882304
1284.000000	92.887858
1283.000000	92.876726
1282.000000	92.884793
1281.000000	92.883220
1280.000000	92.851680
1279.000000	92.856942
1278.000000	92.847282
1277.000000	92.853435
1276.000000	92.838837
1275.000000	92.855531
1274.000000	92.846764
1273.000000	92.834950
1272.000000	92.843424
1271.000000	92.839785
1270.000000	92.850859
1269.000000	92.846925
1268.000000	92.856675
1267.000000	92.872100
1266.000000	92.824169
1265.000000	92.861731
1264.000000	92.849726
1263.000000	92.847225
1262.000000	92.838648
1261.000000	92.827616
1260.000000	92.836144
1259.000000	92.837926
1258.000000	92.827200
1257.000000	92.857737
1256.000000	92.834562
1255.000000	92.820087
1254.000000	92.812651
1253.000000	92.807515
1252.000000	92.821640
1251.000000	92.809723
1250.000000	92.825927
1249.000000	92.835821
1248.000000	92.809176
1247.000000	92.794313
1246.000000	92.800825
1245.000000	92.816571
1244.000000	92.810906
1243.000000	92.818962
1242.000000	92.819403
1241.000000	92.820608
1240.000000	92.824463
1239.000000	92.828492
1238.000000	92.821749
1237.000000	92.828567
1236.000000	92.828132
1235.000000	92.798996
1234.000000	92.811561
1233.000000	92.811117
1232.000000	92.809631
1231.000000	92.797958
1230.000000	92.824088
1229.000000	92.835591
1228.000000	92.818619
1227.000000	92.819423
1226.000000	92.812362
1225.000000	92.804530
1224.000000	92.802843
1223.000000	92.800783
1222.000000	92.811376
1221.000000	92.810110
1220.000000	92.792597
1219.000000	92.806933
1218.000000	92.796086
1217.000000	92.797773
1216.000000	92.813775
1215.000000	92.827967
1214.000000	92.810928
1213.000000	92.808313
1212.000000	92.785528
1211.000000	92.795093
1210.000000	92.842753
1209.000000	92.851276
1208.000000	92.819720
1207.000000	92.818173
1206.000000	92.802122
1205.000000	92.805880
1204.000000	92.802631
1203.000000	92.795943
1202.000000	92.795063
1201.000000	92.797032
1200.000000	92.797503
1199.000000	92.794744
1198.000000	92.796020
1197.000000	92.795911
1196.000000	92.799790
1195.000000	92.789185
1194.000000	92.801910
1193.000000	92.803560
1192.000000	92.805046
1191.000000	92.800056
1190.000000	92.797304
1189.000000	92.783457
1188.000000	92.777164
1187.000000	92.761556
1186.000000	92.764158
1185.000000	92.762870
1184.000000	92.730313
1183.000000	92.719558
1182.000000	92.725530
1181.000000	92.746533
1180.000000	92.744106
1179.000000	92.754513
1178.000000	92.759895
1177.000000	92.742586
1176.000000	92.719519
1175.000000	92.733969
1174.000000	92.753283
1173.000000	92.769571
1172.000000	92.761600
1171.000000	92.748663
1170.000000	92.736524
1169.000000	92.722432
1168.000000	92.720362
1167.000000	92.727267
1166.000000	92.720828
1165.000000	92.720246
1164.000000	92.729580
1163.000000	92.725795
1162.000000	92.729455
1161.000000	92.749670
1160.000000	92.747497
1159.000000	92.753786
1158.000000	92.762158
1157.000000	92.757477
1156.000000	92.745428
1155.000000	92.745019
1154.000000	92.755341
1153.000000	92.762839
1152.000000	92.759075
1151.000000	92.729410
1150.000000	92.716156
1149.000000	92.723927
1148.000000	92.717156
1147.000000	92.715324
1146.000000	92.725167
1145.000000	92.709266
1144.000000	92.709439
1143.000000	92.732059
1142.000000	92.702067
1141.000000	92.697832
1140.000000	92.729973
1139.000000	92.728677
1138.000000	92.720681
1137.000000	92.725671
1136.000000	92.730189
1135.000000	92.681741
1134.000000	92.695806
1133.000000	92.687272
1132.000000	92.684568
1131.000000	92.719805
1130.000000	92.754915
1129.000000	92.743910
1128.000000	92.716434
1127.000000	92.708190
1126.000000	92.734973
1125.000000	92.737843
1124.000000	92.716367
1123.000000	92.713034
1122.000000	92.725557
1121.000000	92.716179
1120.000000	92.711280
1119.000000	92.713835
1118.000000	92.710164
1117.000000	92.704256
1116.000000	92.703958
1115.000000	92.700190
1114.000000	92.700582
1113.000000	92.705214
1112.000000	92.711182
1111.000000	92.711334
1110.000000	92.709226
1109.000000	92.703848
1108.000000	92.706093
1107.000000	92.699212
1106.000000	92.704806
1105.000000	92.718539
1104.000000	92.710253
1103.000000	92.687099
1102.000000	92.699594
1101.000000	92.700302
1100.000000	92.698526
1099.000000	92.696834
1098.000000	92.699786
1097.000000	92.695449
1096.000000	92.700801
1095.000000	92.684960
1094.000000	92.669282
1093.000000	92.659672
1092.000000	92.664850
1091.000000	92.673124
1090.000000	92.689015
1089.000000	92.694866
1088.000000	92.696253
1087.000000	92.693146
1086.000000	92.693877
1085.000000	92.684401
1084.000000	92.680118
1083.000000	92.694207
1082.000000	92.689506
1081.000000	92.706499
1080.000000	92.711966
1079.000000	92.712901
1078.000000	92.696652
1077.000000	92.683939
1076.000000	92.679130
1075.000000	92.671119
1074.000000	92.671212
1073.000000	92.682335
1072.000000	92.699552
1071.000000	92.695480
1070.000000	92.700297
1069.000000	92.696812
1068.000000	92.665877
1067.000000	92.655471
1066.000000	92.657133
1065.000000	92.671806
1064.000000	92.693849
1063.000000	92.704222
1062.000000	92.712748
1061.000000	92.687482
1060.000000	92.687764
1059.000000	92.677879
1058.000000	92.676500
1057.000000	92.675977
1056.000000	92.670606
1055.000000	92.657988
1054.000000	92.658356
1053.000000	92.666224
1052.000000	92.674185
1051.000000	92.649588
1050.000000	92.659007
1049.000000	92.647560
1048.000000	92.670033
1047.000000	92.691793
1046.000000	92.681141
1045.000000	92.678697
1044.000000	92.647909
1043.000000	92.658411
1042.000000	92.674947
1041.000000	92.672371
1040.000000	92.670512
1039.000000	92.673052
1038.000000	92.677245
1037.000000	92.680500
1036.000000	92.686216
1035.000000	92.676824
1034.000000	92.644702
1033.000000	92.676201
1032.000000	92.677117
1031.000000	92.670367
1030.000000	92.678048
1029.000000	92.675614
1028.000000	92.644279
1027.000000	92.662161
1026.000000	92.656658
1025.000000	92.664230
1024.000000	92.650710
1023.000000	92.682636
1022.000000	92.674147
1021.000000	92.648716
1020.000000	92.633568
1019.000000	92.670977
1018.000000	92.675207
1017.000000	92.683642
1016.000000	92.684302
1015.000000	92.671079
1014.000000	92.675348
1013.000000	92.708338
1012.000000	92.663244
1011.000000	92.661231
1010.000000	92.680578
1009.000000	92.683811
1008.000000	92.684777
1007.000000	92.671545
1006.000000	92.668450
1005.000000	92.696761
1004.000000	92.696605
1003.000000	92.699058
1002.000000	92.649400
1001.000000	92.679234
1000.000000	92.658859
999.000000	92.680942
998.000000	92.679878
997.000000	92.673359
996.000000	92.683472
995.000000	92.671167
994.000000	92.691420
993.000000	92.679279
992.000000	92.702919
991.000000	92.691012
990.000000	92.669041
989.000000	92.659325
988.000000	92.652593
987.000000	92.658015
986.000000	92.686206
985.000000	92.677146
984.000000	92.660000
983.000000	92.660871
982.000000	92.673759
981.000000	92.677846
980.000000	92.672224
979.000000	92.657388
978.000000	92.652852
977.000000	92.660329
976.000000	92.654776
975.000000	92.660737
974.000000	92.676153
973.000000	92.683813
972.000000	92.668012
971.000000	92.648150
970.000000	92.668383
969.000000	92.667136
968.000000	92.667129
967.000000	92.637356
966.000000	92.674974
965.000000	92.668626
964.000000	92.654435
963.000000	92.659914
962.000000	92.666446
961.000000	92.647892
960.000000	92.668985
959.000000	92.672384
958.000000	92.688162
957.000000	92.686258
956.000000	92.664540
955.000000	92.662753
954.000000	92.654682
953.000000	92.676899
952.000000	92.677417
951.000000	92.664972
950.000000	92.652001
949.000000	92.637339
948.000000	92.683869
947.000000	92.710794
946.000000	92.696088
945.000000	92.666256
944.000000	92.667871
943.000000	92.691806
942.000000	92.677968
941.000000	92.695273
940.000000	92.700634
939.000000	92.677016
938.000000	92.670141
937.000000	92.709676
936.000000	92.708747
935.000000	92.711919
934.000000	92.708194
933.000000	92.674251
932.000000	92.682133
931.000000	92.711418
930.000000	92.704605
929.000000	92.708084
928.000000	92.715714
927.000000	92.711170
926.000000	92.696047
925.000000	92.674432
924.000000	92.672892
923.000000	92.691528
922.000000	92.698027
921.000000	92.699604
920.000000	92.709009
919.000000	92.710630
918.000000	92.703035
917.000000	92.720759
916.000000	92.686914
915.000000	92.686813
914.000000	92.708054
913.000000	92.689941
912.000000	92.669460
911.000000	92.710402
910.000000	92.709343
909.000000	92.694831
908.000000	92.680119
907.000000	92.704089
906.000000	92.721543
905.000000	92.658956
904.000000	92.687714
903.000000	92.729210
902.000000	92.690683
901.000000	92.681241
900.000000	92.685274
899.000000	92.715631
898.000000	92.727597
897.000000	92.711690
896.000000	92.711368
895.000000	92.693287
894.000000	92.693602
893.000000	92.705417
892.000000	92.712133
891.000000	92.699550
890.000000	92.725285
889.000000	92.733292
888.000000	92.695342
887.000000	92.712434
886.000000	92.716535
885.000000	92.704288
884.000000	92.701469
883.000000	92.707575
882.000000	92.717675
881.000000	92.727047
880.000000	92.717576
879.000000	92.704977
878.000000	92.670887
877.000000	92.662214
876.000000	92.687365
875.000000	92.709338
874.000000	92.715800
873.000000	92.700421
872.000000	92.757157
871.000000	92.769447
870.000000	92.744660
869.000000	92.723361
868.000000	92.719729
867.000000	92.721438
866.000000	92.694881
865.000000	92.743545
864.000000	92.743751
863.000000	92.710320
862.000000	92.708549
861.000000	92.692422
860.000000	92.558559
859.000000	92.453759
858.000000	92.563089
857.000000	92.532875
856.000000	92.443815
855.000000	92.449623
854.000000	92.484320
853.000000	92.491160
852.000000	92.391136
851.000000	92.306879
850.000000	92.417141
849.000000	92.538877
848.000000	92.587848
847.000000	92.458477
846.000000	92.416074
845.000000	92.481513
844.000000	92.470778
843.000000	92.450988
842.000000	92.501398
841.000000	92.475834
840.000000	92.514854
839.000000	92.472828
838.000000	92.479570
837.000000	92.522497
836.000000	92.500535
835.000000	92.477334
834.000000	92.511408
833.000000	92.485203
832.000000	92.423773
831.000000	92.503006
830.000000	92.524737
829.000000	92.495595
828.000000	92.480404
827.000000	92.468043
826.000000	92.488486
825.000000	92.508651
824.000000	92.494496
823.000000	92.479730
822.000000	92.521816
821.000000	92.497579
820.000000	92.526075
819.000000	92.504113
818.000000	92.486665
817.000000	92.449605
816.000000	92.495597
815.000000	92.510788
814.000000	92.530265
813.000000	92.511586
812.000000	92.558754
811.000000	92.532230
810.000000	92.508602
809.000000	92.507892
808.000000	92.451476
807.000000	92.495484
806.000000	92.486643
805.000000	92.476566
804.000000	92.500141
803.000000	92.519910
802.000000	92.524082
801.000000	92.488078
800.000000	92.539162
799.000000	92.457281
798.000000	92.509618
797.000000	92.521306
796.000000	92.494852
795.000000	92.532110
794.000000	92.459901
793.000000	92.489886
792.000000	92.514418
791.000000	92.509171
790.000000	92.471508
789.000000	92.461159
788.000000	92.507393
787.000000	92.428195
786.000000	92.498762
785.000000	92.557160
784.000000	92.512476
783.000000	92.498711
782.000000	92.485423
781.000000	92.501202
780.000000	92.549110
779.000000	92.527224
778.000000	92.514271
777.000000	92.553780
776.000000	92.561169
775.000000	92.526647
774.000000	92.558302
773.000000	92.511880
772.000000	92.549953
771.000000	92.531726
770.000000	92.526936
769.000000	92.530861
768.000000	92.580016
767.000000	92.538497
766.000000	92.533005
765.000000	92.576476
764.000000	92.509073
763.000000	92.520938
762.000000	92.573766
761.000000	92.574812
760.000000	92.495587
759.000000	92.563408
758.000000	92.554461
757.000000	92.522565
756.000000	92.527353
755.000000	92.560414
754.000000	92.539902
753.000000	92.558467
752.000000	92.559900
751.000000	92.509959
750.000000	92.536821
749.000000	92.552144
748.000000	92.530900
747.000000	92.542444
746.000000	92.576786
745.000000	92.537993
744.000000	92.595987
743.000000	92.563414
742.000000	92.550231
741.000000	92.578972
740.000000	92.576278
739.000000	92.563521
738.000000	92.604167
737.000000	92.575665
736.000000	92.521519
735.000000	92.606293
734.000000	92.596840
733.000000	92.565513
732.000000	92.594436
731.000000	92.591138
730.000000	92.529385
729.000000	92.575900
728.000000	92.549783
727.000000	92.590938
726.000000	92.591362
725.000000	92.585408
724.000000	92.558245
723.000000	92.571377
722.000000	92.575220
721.000000	92.558941
720.000000	92.645518
719.000000	92.656505
718.000000	92.567459
717.000000	92.569510
716.000000	92.561420
715.000000	92.553553
714.000000	92.618107
713.000000	92.569373
712.000000	92.579159
711.000000	92.581135
710.000000	92.574405
709.000000	92.589022
708.000000	92.625268
707.000000	92.601182
706.000000	92.561469
705.000000	92.598002
704.000000	92.582561
703.000000	92.601139
702.000000	92.649207
701.000000	92.619663
700.000000	92.576627
699.000000	92.599201
698.000000	92.615545
697.000000	92.651078
696.000000	92.638964
695.000000	92.617755
694.000000	92.584218
693.000000	92.583341
692.000000	92.607868
691.000000	92.633058
690.000000	92.651064
689.000000	92.618147
688.000000	92.565597
687.000000	92.614728
686.000000	92.627170
685.000000	92.598345
684.000000	92.631180
683.000000	92.660215
682.000000	92.598341
681.000000	92.596954
680.000000	92.596659
679.000000	92.605744
678.000000	92.626060
677.000000	92.628040
676.000000	92.610580
675.000000	92.612591
674.000000	92.619067
673.000000	92.628071
672.000000	92.637064
671.000000	92.615483
670.000000	92.578120
669.000000	92.611409
668.000000	92.608074
667.000000	92.637663
666.000000	92.644128
665.000000	92.621073
664.000000	92.596434
663.000000	92.638180
662.000000	92.622460
661.000000	92.611600
660.000000	92.647748
659.000000	92.621080
658.000000	92.584323
657.000000	92.592832
656.000000	92.606352
655.000000	92.647267
654.000000	92.669776
653.000000	92.652789
652.000000	92.604496
651.000000	92.630384
650.000000	92.616587
649.000000	92.618846
648.000000	92.679696
647.000000	92.661417
646.000000	92.640769
645.000000	92.642575
644.000000	92.631374
643.000000	92.628245
642.000000	92.637383
641.000000	92.633586
640.000000	92.621144
639.000000	92.645139
638.000000	92.625383
637.000000	92.635670
636.000000	92.661872
635.000000	92.633761
634.000000	92.609684
633.000000	92.617002
632.000000	92.608017
631.000000	92.625308
630.000000	92.652005
629.000000	92.635581
628.000000	92.622666
627.000000	92.632074
626.000000	92.630980
625.000000	92.639196
624.000000	92.658094
623.000000	92.618219
622.000000	92.609480
621.000000	92.623974
620.000000	92.612328
619.000000	92.619640
618.000000	92.621339
617.000000	92.610639
616.000000	92.610935
615.000000	92.614395
614.000000	92.614548
613.000000	92.631107
612.000000	92.640766
611.000000	92.627883
610.000000	92.621598
609.000000	92.631047
608.000000	92.604241
607.000000	92.611210
606.000000	92.630906
605.000000	92.597071
604.000000	92.585351
603.000000	92.610349
602.000000	92.623636
601.000000	92.652099
600.000000	92.672713
599.000000	92.624656
598.000000	92.592890
597.000000	92.606659
596.000000	92.589760
595.000000	92.601727
594.000000	92.647019
593.000000	92.624834
592.000000	92.590320
591.000000	92.603172
590.000000	92.601746
589.000000	92.614989
588.000000	92.612868
587.000000	92.566236
586.000000	92.568915
585.000000	92.599530
584.000000	92.609930
583.000000	92.640182
582.000000	92.619515
581.000000	92.589471
580.000000	92.572641
579.000000	92.568084
578.000000	92.567463
577.000000	92.565949
576.000000	92.592511
575.000000	92.580320
574.000000	92.559958
573.000000	92.571017
572.000000	92.567316
571.000000	92.583226
570.000000	92.583216
569.000000	92.532578
568.000000	92.545311
567.000000	92.566328
566.000000	92.577928
565.000000	92.591706
564.000000	92.585198
563.000000	92.561978
562.000000	92.566929
561.000000	92.583310
560.000000	92.566700
559.000000	92.560730
558.000000	92.564618
557.000000	92.569183
556.000000	92.590438
555.000000	92.593178
554.000000	92.566593
553.000000	92.557615
552.000000	92.562458
551.000000	92.551603
550.000000	92.565215
549.000000	92.594081
548.000000	92.541163
547.000000	92.542163
546.000000	92.543432
545.000000	92.525108
544.000000	92.552883
543.000000	92.567521
542.000000	92.532044
541.000000	92.538113
540.000000	92.560642
539.000000	92.543910
538.000000	92.559150
537.000000	92.567774
536.000000	92.535207
535.000000	92.536012
534.000000	92.547108
533.000000	92.534200
532.000000	92.504948
531.000000	92.547965
530.000000	92.505294
529.000000	92.487085
528.000000	92.507563
527.000000	92.492220
526.000000	92.501324
525.000000	92.514279
524.000000	92.474752
523.000000	92.498953
522.000000	92.459357
521.000000	92.478709
520.000000	92.515671
519.000000	92.507319
518.000000	92.468391
517.000000	92.473534
516.000000	92.494029
515.000000	92.491579
514.000000	92.503531
513.000000	92.524116
512.000000	92.448006
511.000000	92.461099
510.000000	92.467403
509.000000	92.436267
508.000000	92.423309
507.000000	92.450856
506.000000	92.424577
505.000000	92.421640
504.000000	92.428675
503.000000	92.397769
502.000000	92.426277
501.000000	92.375900
500.000000	92.379046
499.000000	92.386008
498.000000	92.403548
497.000000	92.431000
496.000000	92.424887
495.000000	92.403641
494.000000	92.355062
493.000000	92.384146
492.000000	92.410480
491.000000	92.413091
490.000000	92.382722
489.000000	92.405328
488.000000	92.367042
487.000000	92.348672
486.000000	92.350794
485.000000	92.343928
484.000000	92.373348
483.000000	92.398566
482.000000	92.347323
481.000000	92.382133
480.000000	92.345134
479.000000	92.348812
478.000000	92.357306
477.000000	92.371407
476.000000	92.337138
475.000000	92.331437
474.000000	92.340319
473.000000	92.337682
472.000000	92.312170
471.000000	92.315129
470.000000	92.305550
469.000000	92.312568
468.000000	92.310903
467.000000	92.291565
466.000000	92.297667
465.000000	92.364926
464.000000	92.273881
463.000000	92.268611
462.000000	92.241148
461.000000	92.257088
460.000000	92.320397
459.000000	92.296693
458.000000	92.235567
457.000000	92.224394
456.000000	92.236984
455.000000	92.214507
454.000000	92.267258
453.000000	92.242186
452.000000	92.233160
451.000000	92.212978
450.000000	92.243196
449.000000	92.202945
448.000000	92.230548
447.000000	92.251753
446.000000	92.175354
445.000000	92.211599
444.000000	92.197518
443.000000	92.198262
442.000000	92.219716
441.000000	92.211545
440.000000	92.151283
439.000000	92.190626
438.000000	92.167109
437.000000	92.208247
436.000000	92.206111
435.000000	92.215442
434.000000	92.181449
433.000000	92.160370
432.000000	92.165648
431.000000	92.150290
430.000000	92.178728
429.000000	92.181607
428.000000	92.148379
427.000000	92.163310
426.000000	92.172567
425.000000	92.146272
424.000000	92.148216
423.000000	92.195134
422.000000	92.137292
421.000000	92.135356
420.000000	92.143021
419.000000	92.166788
418.000000	92.199876
417.000000	92.158314
416.000000	92.126139
415.000000	92.140144
414.000000	92.118953
413.000000	92.132436
412.000000	92.169689
411.000000	92.143174
410.000000	92.117312
409.000000	92.129266
408.000000	92.095878
407.000000	92.089937
406.000000	92.136620
405.000000	92.142275
404.000000	92.082145
403.000000	92.112349
402.000000	92.114816
401.000000	92.157401
400.000000	92.130921
399.000000	92.104653
398.000000	92.076846
397.000000	92.107685
396.000000	92.094260
395.000000	92.080041
394.000000	92.110213
393.000000	92.068933
392.000000	92.057395
391.000000	92.071684
390.000000	92.082643
389.000000	92.079041
388.000000	92.086376
387.000000	92.053370
386.000000	92.006034
385.000000	91.987325
384.000000	92.005328
383.000000	92.021694
382.000000	92.057221
381.000000	92.030682
380.000000	92.001291
379.000000	91.989671
378.000000	92.005955
377.000000	92.035755
376.000000	92.015754
375.000000	92.006600
374.000000	91.995577
373.000000	92.027162
372.000000	92.111412
371.000000	92.052641
370.000000	92.021176
369.000000	92.006726
368.000000	92.001910
367.000000	92.004185
366.000000	92.015054
365.000000	91.977109
364.000000	91.970160
363.000000	91.969536
362.000000	91.973553
361.000000	91.968780
360.000000	91.979369
359.000000	91.954233
358.000000	91.931276
357.000000	91.923667
356.000000	91.950748
355.000000	91.970622
354.000000	91.919024
353.000000	91.875527
352.000000	91.860583
351.000000	91.862279
350.000000	91.860863
349.000000	91.852604
348.000000	91.837629
347.000000	91.810087
346.000000	91.757535
345.000000	91.739065
344.000000	91.757916
343.000000	91.731581
342.000000	91.712138
341.000000	91.673087
340.000000	91.625837
339.000000	91.592842
338.000000	91.560018
337.000000	91.521107
336.000000	91.500930
335.000000	91.483138
334.000000	91.421309
333.000000	91.383191
332.000000	91.361161
331.000000	91.280731
330.000000	91.222453
329.000000	91.193755
328.000000	91.129097
327.000000	91.026125
326.000000	90.937990
325.000000	90.858055
324.000000	90.776414
323.000000	90.676960
322.000000	90.546651
321.000000	90.426219
320.000000	90.285515
319.000000	90.186137
318.000000	90.100381
317.000000	89.964898
316.000000	89.817243
315.000000	89.643830
314.000000	89.396555
313.000000	89.196113
312.000000	89.005352
311.000000	88.755533
310.000000	88.480720
309.000000	88.187261
308.000000	87.877965
307.000000	87.576088
306.000000	87.254793
305.000000	86.887732
304.000000	86.489342
303.000000	86.065997
302.000000	85.595126
301.000000	85.128050
300.000000	84.617701
299.000000	84.036730
298.000000	83.421976
297.000000	82.798088
296.000000	82.110488
295.000000	81.388163
294.000000	80.640686
293.000000	79.782783
292.000000	78.883566
291.000000	77.972980
290.000000	76.978387
289.000000	75.957282
288.000000	74.867983
287.000000	73.696939
286.000000	72.474984
285.000000	71.224353
284.000000	69.900368
283.000000	68.520066
282.000000	67.070581
281.000000	65.570099
280.000000	64.022090
279.000000	62.447332
278.000000	60.823489
277.000000	59.172077
276.000000	57.472143
275.000000	55.753373
274.000000	53.994226
273.000000	52.246908
272.000000	50.495319
271.000000	48.756962
270.000000	47.032785
269.000000	45.303489
268.000000	43.602318
267.000000	41.933198
266.000000	40.288478
265.000000	38.701321
264.000000	37.159235
263.000000	35.639990
262.000000	34.155548
261.000000	32.763478
260.000000	31.426068
259.000000	30.123787
258.000000	28.881001
257.000000	27.681003
256.000000	26.531872
255.000000	25.436715
254.000000	24.389271
253.000000	23.393510
252.000000	22.430634
251.000000	21.509490
250.000000	20.634504
