PE UV       SUBTECH     SPECTRUM    ASCII       PEDS        4.00        
   -1
Corning 7980.Sample.Raw.asc
17/06/21
14:21:20.00
17/06/21
14:21:20.00
Administrator

250.000000
1
Lambda 950
950L1205241
PerkinElmer UV WinLab 6.0.4.0738 / 1.61.00 Lambda 900

0
0
3350/servo 860.8/2
0
0
UV/VIS
1
1
1
DoublePol,CommonBeamDepol,RBeamAtt,SBeamAtt,uv/vis/nir detector
0
0
0
0
Program
Program
3350/servo 860.8/2
3350/0.2 860.8/0.2
3350/0.2 860.8/0.2
0
1
 
 
 
0
 
860.8
319.2
860.8
Front
100
on
S:100 R:100
0
0
0
0
 
0
 
 
 
0
 
 
0
0
0
0
0
 
 
 
 
0
0


0
0
#HDR
-1
-1
#GR
nm
%T
1.0
0.0
3300.000000
-1.000000
3051
8
94.020485
3.402316
#DATA
3300.000000	92.910806
3299.000000	92.954998
3298.000000	92.714493
3297.000000	92.755362
3296.000000	92.709254
3295.000000	92.792140
3294.000000	92.810749
3293.000000	92.830602
3292.000000	92.829394
3291.000000	92.853311
3290.000000	92.853864
3289.000000	92.868421
3288.000000	92.863153
3287.000000	92.842601
3286.000000	92.842437
3285.000000	92.853410
3284.000000	92.793166
3283.000000	92.764004
3282.000000	92.891690
3281.000000	92.814354
3280.000000	92.692450
3279.000000	92.840868
3278.000000	92.811481
3277.000000	92.804706
3276.000000	92.788681
3275.000000	92.743340
3274.000000	92.764561
3273.000000	92.749074
3272.000000	92.723957
3271.000000	92.702468
3270.000000	92.736296
3269.000000	92.713851
3268.000000	92.636221
3267.000000	92.770272
3266.000000	92.749480
3265.000000	92.743235
3264.000000	92.693476
3263.000000	92.703767
3262.000000	92.711797
3261.000000	92.713214
3260.000000	92.830287
3259.000000	92.835909
3258.000000	92.775327
3257.000000	92.716824
3256.000000	92.677630
3255.000000	92.673838
3254.000000	92.700809
3253.000000	92.718923
3252.000000	92.747960
3251.000000	92.642577
3250.000000	92.716154
3249.000000	92.678050
3248.000000	92.637790
3247.000000	92.740602
3246.000000	92.654054
3245.000000	92.693230
3244.000000	92.660259
3243.000000	92.660226
3242.000000	92.675376
3241.000000	92.629055
3240.000000	92.608381
3239.000000	92.607179
3238.000000	92.619475
3237.000000	92.612786
3236.000000	92.626072
3235.000000	92.652083
3234.000000	92.685926
3233.000000	92.670984
3232.000000	92.603149
3231.000000	92.605699
3230.000000	92.632042
3229.000000	92.612509
3228.000000	92.571780
3227.000000	92.561135
3226.000000	92.595083
3225.000000	92.615122
3224.000000	92.606407
3223.000000	92.575967
3222.000000	92.577926
3221.000000	92.603849
3220.000000	92.543396
3219.000000	92.539506
3218.000000	92.566335
3217.000000	92.552515
3216.000000	92.523252
3215.000000	92.548005
3214.000000	92.513482
3213.000000	92.560038
3212.000000	92.554632
3211.000000	92.535156
3210.000000	92.547695
3209.000000	92.548444
3208.000000	92.538326
3207.000000	92.542897
3206.000000	92.548270
3205.000000	92.551000
3204.000000	92.578058
3203.000000	92.593259
3202.000000	92.594789
3201.000000	92.565274
3200.000000	92.522416
3199.000000	92.497576
3198.000000	92.494107
3197.000000	92.488409
3196.000000	92.481007
3195.000000	92.461240
3194.000000	92.458974
3193.000000	92.466098
3192.000000	92.490624
3191.000000	92.468682
3190.000000	92.471585
3189.000000	92.462978
3188.000000	92.429425
3187.000000	92.400960
3186.000000	92.408542
3185.000000	92.390605
3184.000000	92.380543
3183.000000	92.419504
3182.000000	92.408134
3181.000000	92.385105
3180.000000	92.385961
3179.000000	92.344468
3178.000000	92.324417
3177.000000	92.342333
3176.000000	92.331287
3175.000000	92.331815
3174.000000	92.335680
3173.000000	92.357542
3172.000000	92.357470
3171.000000	92.340116
3170.000000	92.341804
3169.000000	92.329714
3168.000000	92.301936
3167.000000	92.267840
3166.000000	92.288741
3165.000000	92.313924
3164.000000	92.275578
3163.000000	92.252414
3162.000000	92.278400
3161.000000	92.275320
3160.000000	92.263423
3159.000000	92.270347
3158.000000	92.284699
3157.000000	92.259376
3156.000000	92.264039
3155.000000	92.260610
3154.000000	92.229593
3153.000000	92.226130
3152.000000	92.239314
3151.000000	92.219367
3150.000000	92.185313
3149.000000	92.166430
3148.000000	92.166927
3147.000000	92.188321
3146.000000	92.197735
3145.000000	92.175288
3144.000000	92.160920
3143.000000	92.171310
3142.000000	92.163460
3141.000000	92.128472
3140.000000	92.106888
3139.000000	92.092709
3138.000000	92.087830
3137.000000	92.112343
3136.000000	92.088505
3135.000000	92.071349
3134.000000	92.080208
3133.000000	92.074556
3132.000000	92.077357
3131.000000	92.098439
3130.000000	92.095119
3129.000000	92.097141
3128.000000	92.080230
3127.000000	92.074455
3126.000000	92.025858
3125.000000	92.034035
3124.000000	92.016887
3123.000000	91.994267
3122.000000	92.011212
3121.000000	92.004414
3120.000000	92.025425
3119.000000	92.004920
3118.000000	91.991711
3117.000000	92.026699
3116.000000	92.001296
3115.000000	91.998022
3114.000000	92.020191
3113.000000	92.004236
3112.000000	91.986949
3111.000000	92.002743
3110.000000	91.989625
3109.000000	91.948432
3108.000000	91.946895
3107.000000	91.932810
3106.000000	91.933767
3105.000000	91.922375
3104.000000	91.940589
3103.000000	91.914103
3102.000000	91.891339
3101.000000	91.920611
3100.000000	91.893252
3099.000000	91.898602
3098.000000	91.903189
3097.000000	91.880843
3096.000000	91.878434
3095.000000	91.864831
3094.000000	91.840643
3093.000000	91.829179
3092.000000	91.823047
3091.000000	91.815827
3090.000000	91.797581
3089.000000	91.826469
3088.000000	91.792500
3087.000000	91.802358
3086.000000	91.785735
3085.000000	91.767832
3084.000000	91.759653
3083.000000	91.771649
3082.000000	91.756202
3081.000000	91.746901
3080.000000	91.739936
3079.000000	91.726256
3078.000000	91.695631
3077.000000	91.689935
3076.000000	91.691363
3075.000000	91.677542
3074.000000	91.650187
3073.000000	91.673456
3072.000000	91.650681
3071.000000	91.639201
3070.000000	91.627579
3069.000000	91.605865
3068.000000	91.605329
3067.000000	91.596398
3066.000000	91.612003
3065.000000	91.570542
3064.000000	91.578660
3063.000000	91.545089
3062.000000	91.544837
3061.000000	91.502661
3060.000000	91.514904
3059.000000	91.466278
3058.000000	91.503248
3057.000000	91.481866
3056.000000	91.468843
3055.000000	91.447731
3054.000000	91.430918
3053.000000	91.414097
3052.000000	91.428512
3051.000000	91.396953
3050.000000	91.379050
3049.000000	91.384991
3048.000000	91.333905
3047.000000	91.370435
3046.000000	91.332468
3045.000000	91.327095
3044.000000	91.281655
3043.000000	91.243950
3042.000000	91.250881
3041.000000	91.255748
3040.000000	91.217523
3039.000000	91.193507
3038.000000	91.198309
3037.000000	91.162920
3036.000000	91.157158
3035.000000	91.128330
3034.000000	91.091738
3033.000000	91.082674
3032.000000	91.062535
3031.000000	91.051060
3030.000000	91.039998
3029.000000	91.026934
3028.000000	91.005032
3027.000000	90.983395
3026.000000	90.965069
3025.000000	90.943490
3024.000000	90.917989
3023.000000	90.901177
3022.000000	90.889219
3021.000000	90.867879
3020.000000	90.863728
3019.000000	90.837753
3018.000000	90.787517
3017.000000	90.804711
3016.000000	90.784338
3015.000000	90.755774
3014.000000	90.712980
3013.000000	90.712985
3012.000000	90.658677
3011.000000	90.649755
3010.000000	90.614183
3009.000000	90.588990
3008.000000	90.583527
3007.000000	90.563829
3006.000000	90.524226
3005.000000	90.510059
3004.000000	90.475034
3003.000000	90.427874
3002.000000	90.401844
3001.000000	90.404572
3000.000000	90.372486
2999.000000	90.352762
2998.000000	90.327904
2997.000000	90.304429
2996.000000	90.263681
2995.000000	90.240866
2994.000000	90.203177
2993.000000	90.175192
2992.000000	90.139961
2991.000000	90.117469
2990.000000	90.078096
2989.000000	90.047055
2988.000000	90.029992
2987.000000	89.975488
2986.000000	89.950528
2985.000000	89.931319
2984.000000	89.884476
2983.000000	89.853406
2982.000000	89.826892
2981.000000	89.803482
2980.000000	89.767328
2979.000000	89.730576
2978.000000	89.678452
2977.000000	89.647924
2976.000000	89.617297
2975.000000	89.584909
2974.000000	89.540216
2973.000000	89.495189
2972.000000	89.437975
2971.000000	89.397111
2970.000000	89.360634
2969.000000	89.317806
2968.000000	89.261973
2967.000000	89.223887
2966.000000	89.187793
2965.000000	89.123188
2964.000000	89.081281
2963.000000	89.024718
2962.000000	88.965773
2961.000000	88.924988
2960.000000	88.886087
2959.000000	88.827649
2958.000000	88.766848
2957.000000	88.726908
2956.000000	88.677632
2955.000000	88.622033
2954.000000	88.577641
2953.000000	88.527925
2952.000000	88.484223
2951.000000	88.436590
2950.000000	88.386491
2949.000000	88.317872
2948.000000	88.239314
2947.000000	88.164750
2946.000000	88.096312
2945.000000	88.034071
2944.000000	87.971916
2943.000000	87.891234
2942.000000	87.827770
2941.000000	87.750855
2940.000000	87.665114
2939.000000	87.584492
2938.000000	87.521854
2937.000000	87.434647
2936.000000	87.370498
2935.000000	87.323100
2934.000000	87.209193
2933.000000	87.114512
2932.000000	87.041812
2931.000000	86.963638
2930.000000	86.888049
2929.000000	86.788872
2928.000000	86.697548
2927.000000	86.618159
2926.000000	86.528419
2925.000000	86.435998
2924.000000	86.335420
2923.000000	86.222835
2922.000000	86.115892
2921.000000	86.008829
2920.000000	85.894352
2919.000000	85.788298
2918.000000	85.689401
2917.000000	85.553712
2916.000000	85.441318
2915.000000	85.337519
2914.000000	85.217636
2913.000000	85.115670
2912.000000	84.994205
2911.000000	84.875486
2910.000000	84.764206
2909.000000	84.644334
2908.000000	84.512602
2907.000000	84.391068
2906.000000	84.265719
2905.000000	84.126812
2904.000000	83.976041
2903.000000	83.822209
2902.000000	83.682617
2901.000000	83.537905
2900.000000	83.375277
2899.000000	83.210065
2898.000000	83.035147
2897.000000	82.869177
2896.000000	82.704585
2895.000000	82.568331
2894.000000	82.386656
2893.000000	82.207555
2892.000000	82.032002
2891.000000	81.838790
2890.000000	81.679665
2889.000000	81.489477
2888.000000	81.282902
2887.000000	81.094881
2886.000000	80.896844
2885.000000	80.687790
2884.000000	80.473086
2883.000000	80.244983
2882.000000	80.011336
2881.000000	79.791038
2880.000000	79.575548
2879.000000	79.342679
2878.000000	79.114794
2877.000000	78.875081
2876.000000	78.625619
2875.000000	78.370318
2874.000000	78.108208
2873.000000	77.840626
2872.000000	77.556929
2871.000000	77.256526
2870.000000	76.941127
2869.000000	76.615029
2868.000000	76.296184
2867.000000	75.931099
2866.000000	75.611311
2865.000000	75.278880
2864.000000	74.945587
2863.000000	74.592763
2862.000000	74.283234
2861.000000	73.961470
2860.000000	73.603563
2859.000000	73.241158
2858.000000	72.876666
2857.000000	72.481454
2856.000000	72.052213
2855.000000	71.577663
2854.000000	71.082793
2853.000000	70.596461
2852.000000	70.081512
2851.000000	69.525279
2850.000000	69.002315
2849.000000	68.432968
2848.000000	67.879816
2847.000000	67.336147
2846.000000	66.828132
2845.000000	66.363130
2844.000000	65.829122
2843.000000	65.335761
2842.000000	64.849508
2841.000000	64.328917
2840.000000	63.791862
2839.000000	63.186305
2838.000000	62.545081
2837.000000	61.822152
2836.000000	61.065330
2835.000000	60.299863
2834.000000	59.496759
2833.000000	58.622178
2832.000000	57.770700
2831.000000	56.959673
2830.000000	56.183097
2829.000000	55.467704
2828.000000	54.828474
2827.000000	54.208518
2826.000000	53.567865
2825.000000	52.946078
2824.000000	52.255612
2823.000000	51.542153
2822.000000	50.823092
2821.000000	49.991883
2820.000000	49.088100
2819.000000	48.116446
2818.000000	47.143915
2817.000000	46.217672
2816.000000	45.273310
2815.000000	44.325447
2814.000000	43.459919
2813.000000	42.650311
2812.000000	41.870151
2811.000000	41.196112
2810.000000	40.616738
2809.000000	39.980072
2808.000000	39.327723
2807.000000	38.554590
2806.000000	37.726110
2805.000000	36.806981
2804.000000	35.836154
2803.000000	34.833661
2802.000000	33.814245
2801.000000	32.764965
2800.000000	31.728629
2799.000000	30.726919
2798.000000	29.912748
2797.000000	29.209847
2796.000000	28.601648
2795.000000	28.083902
2794.000000	27.615487
2793.000000	27.124216
2792.000000	26.588932
2791.000000	26.016256
2790.000000	25.406254
2789.000000	24.774901
2788.000000	24.107043
2787.000000	23.408608
2786.000000	22.731955
2785.000000	22.042054
2784.000000	21.334919
2783.000000	20.662427
2782.000000	20.041312
2781.000000	19.387141
2780.000000	18.781653
2779.000000	18.201989
2778.000000	17.682607
2777.000000	17.180414
2776.000000	16.727861
2775.000000	16.295685
2774.000000	15.874884
2773.000000	15.498526
2772.000000	15.124714
2771.000000	14.764002
2770.000000	14.367463
2769.000000	13.930771
2768.000000	13.488700
2767.000000	13.059930
2766.000000	12.648773
2765.000000	12.236811
2764.000000	11.829304
2763.000000	11.420725
2762.000000	10.998038
2761.000000	10.569058
2760.000000	10.145680
2759.000000	9.716536
2758.000000	9.325882
2757.000000	8.955752
2756.000000	8.629681
2755.000000	8.317161
2754.000000	7.998335
2753.000000	7.680323
2752.000000	7.367919
2751.000000	7.100558
2750.000000	6.887244
2749.000000	6.712124
2748.000000	6.566480
2747.000000	6.443571
2746.000000	6.302734
2745.000000	6.161270
2744.000000	6.052998
2743.000000	5.954680
2742.000000	5.821557
2741.000000	5.616340
2740.000000	5.329524
2739.000000	4.999666
2738.000000	4.678921
2737.000000	4.433063
2736.000000	4.216737
2735.000000	4.051142
2734.000000	3.923051
2733.000000	3.821651
2732.000000	3.726117
2731.000000	3.680356
2730.000000	3.703762
2729.000000	3.780080
2728.000000	3.877516
2727.000000	3.981425
2726.000000	3.997637
2725.000000	3.931524
2724.000000	3.768833
2723.000000	3.561719
2722.000000	3.433618
2721.000000	3.402316
2720.000000	3.443439
2719.000000	3.498962
2718.000000	3.522716
2717.000000	3.558744
2716.000000	3.631922
2715.000000	3.707862
2714.000000	3.794235
2713.000000	3.944708
2712.000000	4.152210
2711.000000	4.427178
2710.000000	4.746349
2709.000000	5.086012
2708.000000	5.444140
2707.000000	5.863834
2706.000000	6.335541
2705.000000	6.892373
2704.000000	7.502062
2703.000000	8.083252
2702.000000	8.633970
2701.000000	9.260905
2700.000000	10.022885
2699.000000	11.016750
2698.000000	12.334793
2697.000000	14.031706
2696.000000	16.118553
2695.000000	18.487740
2694.000000	20.972253
2693.000000	23.598043
2692.000000	26.314406
2691.000000	29.125816
2690.000000	32.044424
2689.000000	35.075535
2688.000000	37.977715
2687.000000	40.644354
2686.000000	43.116274
2685.000000	45.331367
2684.000000	47.355888
2683.000000	49.406908
2682.000000	51.534472
2681.000000	53.670857
2680.000000	55.334630
2679.000000	56.919837
2678.000000	59.070392
2677.000000	61.008833
2676.000000	62.542610
2675.000000	63.844100
2674.000000	65.138577
2673.000000	66.593763
2672.000000	68.150261
2671.000000	69.646324
2670.000000	71.118165
2669.000000	72.539951
2668.000000	73.825341
2667.000000	75.047941
2666.000000	76.188192
2665.000000	77.180829
2664.000000	77.976231
2663.000000	78.573048
2662.000000	79.074035
2661.000000	79.542142
2660.000000	79.965322
2659.000000	80.283183
2658.000000	80.517473
2657.000000	80.728299
2656.000000	80.943916
2655.000000	81.164811
2654.000000	81.400771
2653.000000	81.641408
2652.000000	81.853411
2651.000000	82.026656
2650.000000	82.201511
2649.000000	82.376118
2648.000000	82.546156
2647.000000	82.691229
2646.000000	82.829693
2645.000000	82.979445
2644.000000	83.120220
2643.000000	83.259895
2642.000000	83.402354
2641.000000	83.538296
2640.000000	83.639711
2639.000000	83.754214
2638.000000	83.839902
2637.000000	83.952941
2636.000000	84.074967
2635.000000	84.147455
2634.000000	84.213359
2633.000000	84.259946
2632.000000	84.289658
2631.000000	84.330865
2630.000000	84.400638
2629.000000	84.496487
2628.000000	84.605989
2627.000000	84.722812
2626.000000	84.782030
2625.000000	84.864324
2624.000000	84.930175
2623.000000	84.983848
2622.000000	85.043442
2621.000000	85.106064
2620.000000	85.173312
2619.000000	85.207870
2618.000000	85.240314
2617.000000	85.252944
2616.000000	85.293311
2615.000000	85.343765
2614.000000	85.420779
2613.000000	85.491626
2612.000000	85.507421
2611.000000	85.569004
2610.000000	85.601353
2609.000000	85.614856
2608.000000	85.669856
2607.000000	85.724156
2606.000000	85.764854
2605.000000	85.832134
2604.000000	85.877150
2603.000000	85.929460
2602.000000	85.977064
2601.000000	85.995989
2600.000000	86.054419
2599.000000	86.083388
2598.000000	86.115525
2597.000000	86.163795
2596.000000	86.204925
2595.000000	86.255316
2594.000000	86.283063
2593.000000	86.312538
2592.000000	86.345974
2591.000000	86.401260
2590.000000	86.485399
2589.000000	86.527887
2588.000000	86.577721
2587.000000	86.610371
2586.000000	86.652850
2585.000000	86.682305
2584.000000	86.745388
2583.000000	86.829879
2582.000000	86.888386
2581.000000	86.875484
2580.000000	86.969842
2579.000000	87.019806
2578.000000	87.040365
2577.000000	87.118690
2576.000000	87.177783
2575.000000	87.236554
2574.000000	87.267622
2573.000000	87.310096
2572.000000	87.404766
2571.000000	87.415635
2570.000000	87.489964
2569.000000	87.549635
2568.000000	87.603087
2567.000000	87.624854
2566.000000	87.670431
2565.000000	87.724729
2564.000000	87.814182
2563.000000	87.864957
2562.000000	87.914001
2561.000000	87.991784
2560.000000	88.045807
2559.000000	88.130125
2558.000000	88.196385
2557.000000	88.239397
2556.000000	88.293618
2555.000000	88.347835
2554.000000	88.412516
2553.000000	88.498835
2552.000000	88.580345
2551.000000	88.592296
2550.000000	88.616059
2549.000000	88.635521
2548.000000	88.718069
2547.000000	88.769407
2546.000000	88.852576
2545.000000	88.905369
2544.000000	88.975766
2543.000000	89.021796
2542.000000	89.094488
2541.000000	89.147516
2540.000000	89.208011
2539.000000	89.266325
2538.000000	89.315949
2537.000000	89.378138
2536.000000	89.455241
2535.000000	89.489877
2534.000000	89.553032
2533.000000	89.600274
2532.000000	89.652605
2531.000000	89.713285
2530.000000	89.764707
2529.000000	89.813600
2528.000000	89.867673
2527.000000	89.945272
2526.000000	90.004489
2525.000000	90.063725
2524.000000	90.105643
2523.000000	90.173939
2522.000000	90.201793
2521.000000	90.251326
2520.000000	90.302698
2519.000000	90.365601
2518.000000	90.424722
2517.000000	90.461183
2516.000000	90.508348
2515.000000	90.563510
2514.000000	90.597478
2513.000000	90.604360
2512.000000	90.683842
2511.000000	90.731681
2510.000000	90.781273
2509.000000	90.828029
2508.000000	90.872452
2507.000000	90.906405
2506.000000	90.974338
2505.000000	91.012369
2504.000000	91.069080
2503.000000	91.083184
2502.000000	91.123705
2501.000000	91.173726
2500.000000	91.145649
2499.000000	91.234858
2498.000000	91.286157
2497.000000	91.325558
2496.000000	91.348814
2495.000000	91.376530
2494.000000	91.417564
2493.000000	91.442704
2492.000000	91.481261
2491.000000	91.499734
2490.000000	91.524164
2489.000000	91.548536
2488.000000	91.592970
2487.000000	91.628412
2486.000000	91.668980
2485.000000	91.680651
2484.000000	91.701698
2483.000000	91.732458
2482.000000	91.767098
2481.000000	91.790066
2480.000000	91.814876
2479.000000	91.839490
2478.000000	91.896739
2477.000000	91.891487
2476.000000	91.921280
2475.000000	91.927890
2474.000000	91.955175
2473.000000	91.977894
2472.000000	92.010927
2471.000000	92.032323
2470.000000	92.045188
2469.000000	92.055431
2468.000000	92.059696
2467.000000	92.071393
2466.000000	92.123577
2465.000000	92.150570
2464.000000	92.169978
2463.000000	92.194318
2462.000000	92.197261
2461.000000	92.213170
2460.000000	92.224435
2459.000000	92.231659
2458.000000	92.254230
2457.000000	92.279254
2456.000000	92.301707
2455.000000	92.324040
2454.000000	92.343399
2453.000000	92.361023
2452.000000	92.375757
2451.000000	92.377898
2450.000000	92.393187
2449.000000	92.415850
2448.000000	92.434854
2447.000000	92.446754
2446.000000	92.461846
2445.000000	92.483711
2444.000000	92.496298
2443.000000	92.520291
2442.000000	92.531625
2441.000000	92.540178
2440.000000	92.567331
2439.000000	92.584264
2438.000000	92.601555
2437.000000	92.617400
2436.000000	92.623156
2435.000000	92.647271
2434.000000	92.664871
2433.000000	92.678291
2432.000000	92.712532
2431.000000	92.724196
2430.000000	92.735958
2429.000000	92.764434
2428.000000	92.784265
2427.000000	92.794678
2426.000000	92.816964
2425.000000	92.835078
2424.000000	92.844030
2423.000000	92.850553
2422.000000	92.871257
2421.000000	92.906880
2420.000000	92.919739
2419.000000	92.935722
2418.000000	92.949129
2417.000000	92.964272
2416.000000	92.988526
2415.000000	92.994101
2414.000000	93.010523
2413.000000	93.037632
2412.000000	93.045231
2411.000000	93.038009
2410.000000	93.059484
2409.000000	93.089351
2408.000000	93.098741
2407.000000	93.102833
2406.000000	93.114782
2405.000000	93.125627
2404.000000	93.142458
2403.000000	93.156914
2402.000000	93.164057
2401.000000	93.184336
2400.000000	93.207043
2399.000000	93.216307
2398.000000	93.211518
2397.000000	93.217937
2396.000000	93.226874
2395.000000	93.234153
2394.000000	93.240765
2393.000000	93.249141
2392.000000	93.248534
2391.000000	93.273398
2390.000000	93.280051
2389.000000	93.277785
2388.000000	93.284191
2387.000000	93.299989
2386.000000	93.297688
2385.000000	93.297330
2384.000000	93.304103
2383.000000	93.302574
2382.000000	93.305811
2381.000000	93.313983
2380.000000	93.313715
2379.000000	93.308491
2378.000000	93.317108
2377.000000	93.311562
2376.000000	93.319631
2375.000000	93.322419
2374.000000	93.316575
2373.000000	93.313504
2372.000000	93.317884
2371.000000	93.303076
2370.000000	93.301724
2369.000000	93.299793
2368.000000	93.305705
2367.000000	93.301917
2366.000000	93.300685
2365.000000	93.313234
2364.000000	93.312938
2363.000000	93.299639
2362.000000	93.299853
2361.000000	93.295160
2360.000000	93.290341
2359.000000	93.293959
2358.000000	93.300561
2357.000000	93.303400
2356.000000	93.294557
2355.000000	93.282275
2354.000000	93.283088
2353.000000	93.266816
2352.000000	93.249704
2351.000000	93.246848
2350.000000	93.247589
2349.000000	93.228245
2348.000000	93.227648
2347.000000	93.228144
2346.000000	93.212703
2345.000000	93.223872
2344.000000	93.209239
2343.000000	93.203842
2342.000000	93.195066
2341.000000	93.183623
2340.000000	93.182380
2339.000000	93.183051
2338.000000	93.177253
2337.000000	93.159971
2336.000000	93.152985
2335.000000	93.135866
2334.000000	93.116209
2333.000000	93.118244
2332.000000	93.092940
2331.000000	93.091891
2330.000000	93.066664
2329.000000	93.062303
2328.000000	93.058192
2327.000000	93.043021
2326.000000	93.031772
2325.000000	93.012469
2324.000000	93.011726
2323.000000	92.962979
2322.000000	92.962241
2321.000000	92.941403
2320.000000	92.914028
2319.000000	92.904420
2318.000000	92.875928
2317.000000	92.865886
2316.000000	92.849337
2315.000000	92.823898
2314.000000	92.790063
2313.000000	92.783456
2312.000000	92.745318
2311.000000	92.713278
2310.000000	92.706925
2309.000000	92.669101
2308.000000	92.642932
2307.000000	92.599554
2306.000000	92.590448
2305.000000	92.544846
2304.000000	92.519155
2303.000000	92.486655
2302.000000	92.465014
2301.000000	92.418589
2300.000000	92.385895
2299.000000	92.343922
2298.000000	92.307709
2297.000000	92.266047
2296.000000	92.230262
2295.000000	92.195371
2294.000000	92.142044
2293.000000	92.083840
2292.000000	92.044227
2291.000000	92.010687
2290.000000	91.952404
2289.000000	91.908317
2288.000000	91.872580
2287.000000	91.821499
2286.000000	91.744468
2285.000000	91.697089
2284.000000	91.671293
2283.000000	91.608449
2282.000000	91.543496
2281.000000	91.506285
2280.000000	91.413531
2279.000000	91.374055
2278.000000	91.309318
2277.000000	91.267421
2276.000000	91.203066
2275.000000	91.109454
2274.000000	91.054213
2273.000000	91.011426
2272.000000	90.932761
2271.000000	90.853202
2270.000000	90.805722
2269.000000	90.725786
2268.000000	90.649786
2267.000000	90.585308
2266.000000	90.528770
2265.000000	90.452782
2264.000000	90.381364
2263.000000	90.310259
2262.000000	90.227927
2261.000000	90.157875
2260.000000	90.087105
2259.000000	90.029679
2258.000000	89.962500
2257.000000	89.902325
2256.000000	89.838578
2255.000000	89.777854
2254.000000	89.722702
2253.000000	89.660717
2252.000000	89.640464
2251.000000	89.599573
2250.000000	89.531831
2249.000000	89.489912
2248.000000	89.459274
2247.000000	89.414775
2246.000000	89.390068
2245.000000	89.373789
2244.000000	89.357683
2243.000000	89.326790
2242.000000	89.298378
2241.000000	89.272603
2240.000000	89.274810
2239.000000	89.258450
2238.000000	89.222649
2237.000000	89.199398
2236.000000	89.167339
2235.000000	89.153973
2234.000000	89.131060
2233.000000	89.092503
2232.000000	89.051586
2231.000000	89.008872
2230.000000	88.957140
2229.000000	88.915151
2228.000000	88.838784
2227.000000	88.770068
2226.000000	88.688479
2225.000000	88.630817
2224.000000	88.535606
2223.000000	88.431521
2222.000000	88.323899
2221.000000	88.237294
2220.000000	88.138150
2219.000000	88.039909
2218.000000	87.949278
2217.000000	87.857370
2216.000000	87.767436
2215.000000	87.667858
2214.000000	87.588192
2213.000000	87.541849
2212.000000	87.518769
2211.000000	87.506071
2210.000000	87.525480
2209.000000	87.571603
2208.000000	87.614914
2207.000000	87.707434
2206.000000	87.830478
2205.000000	87.993759
2204.000000	88.193503
2203.000000	88.413983
2202.000000	88.668172
2201.000000	88.919102
2200.000000	89.183538
2199.000000	89.465269
2198.000000	89.751937
2197.000000	90.031058
2196.000000	90.294352
2195.000000	90.560653
2194.000000	90.804493
2193.000000	91.019055
2192.000000	91.235563
2191.000000	91.430899
2190.000000	91.588098
2189.000000	91.739580
2188.000000	91.887971
2187.000000	92.015767
2186.000000	92.123149
2185.000000	92.230103
2184.000000	92.303994
2183.000000	92.374894
2182.000000	92.455281
2181.000000	92.534165
2180.000000	92.597353
2179.000000	92.638565
2178.000000	92.688241
2177.000000	92.727487
2176.000000	92.764024
2175.000000	92.814003
2174.000000	92.853381
2173.000000	92.867251
2172.000000	92.899694
2171.000000	92.934054
2170.000000	92.966653
2169.000000	92.995612
2168.000000	93.020713
2167.000000	93.036972
2166.000000	93.049333
2165.000000	93.077617
2164.000000	93.100846
2163.000000	93.121972
2162.000000	93.146980
2161.000000	93.165288
2160.000000	93.186599
2159.000000	93.198119
2158.000000	93.198167
2157.000000	93.220325
2156.000000	93.241262
2155.000000	93.265701
2154.000000	93.289986
2153.000000	93.300870
2152.000000	93.317439
2151.000000	93.336421
2150.000000	93.359658
2149.000000	93.385494
2148.000000	93.393022
2147.000000	93.395186
2146.000000	93.419263
2145.000000	93.446342
2144.000000	93.458960
2143.000000	93.484098
2142.000000	93.497091
2141.000000	93.501918
2140.000000	93.523142
2139.000000	93.541827
2138.000000	93.549473
2137.000000	93.580968
2136.000000	93.588721
2135.000000	93.574275
2134.000000	93.578321
2133.000000	93.587636
2132.000000	93.612293
2131.000000	93.636386
2130.000000	93.628093
2129.000000	93.622615
2128.000000	93.633054
2127.000000	93.629859
2126.000000	93.638377
2125.000000	93.646610
2124.000000	93.662868
2123.000000	93.674303
2122.000000	93.660321
2121.000000	93.668294
2120.000000	93.673818
2119.000000	93.662120
2118.000000	93.664845
2117.000000	93.679258
2116.000000	93.699403
2115.000000	93.687790
2114.000000	93.680653
2113.000000	93.699566
2112.000000	93.691048
2111.000000	93.718533
2110.000000	93.727865
2109.000000	93.710266
2108.000000	93.713141
2107.000000	93.707517
2106.000000	93.708770
2105.000000	93.706353
2104.000000	93.702635
2103.000000	93.721425
2102.000000	93.747435
2101.000000	93.723602
2100.000000	93.718962
2099.000000	93.712767
2098.000000	93.718066
2097.000000	93.734907
2096.000000	93.728415
2095.000000	93.726607
2094.000000	93.726536
2093.000000	93.746137
2092.000000	93.735887
2091.000000	93.731825
2090.000000	93.744732
2089.000000	93.749141
2088.000000	93.722997
2087.000000	93.728894
2086.000000	93.734542
2085.000000	93.733058
2084.000000	93.738573
2083.000000	93.735562
2082.000000	93.740030
2081.000000	93.729669
2080.000000	93.742069
2079.000000	93.732978
2078.000000	93.729278
2077.000000	93.721781
2076.000000	93.726184
2075.000000	93.732206
2074.000000	93.731501
2073.000000	93.737995
2072.000000	93.736950
2071.000000	93.723855
2070.000000	93.714774
2069.000000	93.726589
2068.000000	93.710821
2067.000000	93.723319
2066.000000	93.728055
2065.000000	93.712751
2064.000000	93.727141
2063.000000	93.721722
2062.000000	93.731546
2061.000000	93.716803
2060.000000	93.710686
2059.000000	93.717097
2058.000000	93.719406
2057.000000	93.751604
2056.000000	93.716873
2055.000000	93.718229
2054.000000	93.726017
2053.000000	93.727123
2052.000000	93.743472
2051.000000	93.742933
2050.000000	93.729225
2049.000000	93.735757
2048.000000	93.746002
2047.000000	93.741146
2046.000000	93.756865
2045.000000	93.754743
2044.000000	93.758706
2043.000000	93.763404
2042.000000	93.775627
2041.000000	93.772202
2040.000000	93.790390
2039.000000	93.750047
2038.000000	93.763208
2037.000000	93.774609
2036.000000	93.803547
2035.000000	93.800225
2034.000000	93.781566
2033.000000	93.797719
2032.000000	93.774789
2031.000000	93.770784
2030.000000	93.823261
2029.000000	93.805780
2028.000000	93.810031
2027.000000	93.799594
2026.000000	93.794539
2025.000000	93.815012
2024.000000	93.832309
2023.000000	93.843387
2022.000000	93.816922
2021.000000	93.820800
2020.000000	93.822485
2019.000000	93.824164
2018.000000	93.844950
2017.000000	93.831685
2016.000000	93.822680
2015.000000	93.833851
2014.000000	93.844442
2013.000000	93.839492
2012.000000	93.859902
2011.000000	93.843622
2010.000000	93.869776
2009.000000	93.856754
2008.000000	93.844575
2007.000000	93.862717
2006.000000	93.864535
2005.000000	93.865647
2004.000000	93.858537
2003.000000	93.848705
2002.000000	93.852848
2001.000000	93.849049
2000.000000	93.859423
1999.000000	93.868744
1998.000000	93.882909
1997.000000	93.880415
1996.000000	93.887505
1995.000000	93.887056
1994.000000	93.869330
1993.000000	93.863907
1992.000000	93.864690
1991.000000	93.857145
1990.000000	93.840105
1989.000000	93.845506
1988.000000	93.862525
1987.000000	93.861923
1986.000000	93.877854
1985.000000	93.875088
1984.000000	93.874421
1983.000000	93.887241
1982.000000	93.891098
1981.000000	93.887856
1980.000000	93.888865
1979.000000	93.887834
1978.000000	93.878559
1977.000000	93.876595
1976.000000	93.873412
1975.000000	93.877607
1974.000000	93.876686
1973.000000	93.870057
1972.000000	93.889833
1971.000000	93.883712
1970.000000	93.876252
1969.000000	93.861879
1968.000000	93.847139
1967.000000	93.849957
1966.000000	93.865485
1965.000000	93.869175
1964.000000	93.881217
1963.000000	93.882469
1962.000000	93.853563
1961.000000	93.849095
1960.000000	93.863199
1959.000000	93.883159
1958.000000	93.858554
1957.000000	93.852367
1956.000000	93.868214
1955.000000	93.904578
1954.000000	93.905479
1953.000000	93.859382
1952.000000	93.857321
1951.000000	93.866791
1950.000000	93.852856
1949.000000	93.840669
1948.000000	93.880161
1947.000000	93.883941
1946.000000	93.870976
1945.000000	93.869872
1944.000000	93.875997
1943.000000	93.877200
1942.000000	93.865894
1941.000000	93.870912
1940.000000	93.879055
1939.000000	93.883239
1938.000000	93.877437
1937.000000	93.870228
1936.000000	93.858863
1935.000000	93.861246
1934.000000	93.863600
1933.000000	93.881851
1932.000000	93.891166
1931.000000	93.831767
1930.000000	93.823085
1929.000000	93.862800
1928.000000	93.846954
1927.000000	93.824903
1926.000000	93.832417
1925.000000	93.835725
1924.000000	93.832622
1923.000000	93.856449
1922.000000	93.852946
1921.000000	93.862788
1920.000000	93.844910
1919.000000	93.824471
1918.000000	93.836486
1917.000000	93.840206
1916.000000	93.854956
1915.000000	93.883353
1914.000000	93.883971
1913.000000	93.866918
1912.000000	93.858239
1911.000000	93.834135
1910.000000	93.785578
1909.000000	93.787976
1908.000000	93.872489
1907.000000	93.899059
1906.000000	93.890476
1905.000000	93.886371
1904.000000	93.855146
1903.000000	93.808320
1902.000000	93.812147
1901.000000	93.836441
1900.000000	93.861824
1899.000000	93.884692
1898.000000	93.874208
1897.000000	93.868149
1896.000000	93.859470
1895.000000	93.849155
1894.000000	93.870018
1893.000000	93.910939
1892.000000	93.904896
1891.000000	93.870840
1890.000000	93.854169
1889.000000	93.854725
1888.000000	93.856629
1887.000000	93.862349
1886.000000	93.868408
1885.000000	93.869284
1884.000000	93.891973
1883.000000	93.904866
1882.000000	93.878593
1881.000000	93.869927
1880.000000	93.898897
1879.000000	93.906420
1878.000000	93.882019
1877.000000	93.878184
1876.000000	93.886640
1875.000000	93.882953
1874.000000	93.886210
1873.000000	93.896119
1872.000000	93.895242
1871.000000	93.896342
1870.000000	93.884519
1869.000000	93.886373
1868.000000	93.883704
1867.000000	93.855161
1866.000000	93.863076
1865.000000	93.875756
1864.000000	93.890319
1863.000000	93.902072
1862.000000	93.899167
1861.000000	93.899181
1860.000000	93.902482
1859.000000	93.889368
1858.000000	93.870903
1857.000000	93.859918
1856.000000	93.833586
1855.000000	93.890772
1854.000000	93.898168
1853.000000	93.895263
1852.000000	93.878879
1851.000000	93.861632
1850.000000	93.873477
1849.000000	93.857906
1848.000000	93.968308
1847.000000	93.975834
1846.000000	93.887634
1845.000000	93.817531
1844.000000	93.855207
1843.000000	93.939498
1842.000000	94.020485
1841.000000	93.964674
1840.000000	93.888303
1839.000000	93.863366
1838.000000	93.860063
1837.000000	93.876891
1836.000000	93.900349
1835.000000	93.892765
1834.000000	93.885351
1833.000000	93.887370
1832.000000	93.914088
1831.000000	93.931453
1830.000000	93.888159
1829.000000	93.919954
1828.000000	93.895848
1827.000000	93.909264
1826.000000	93.890238
1825.000000	93.908400
1824.000000	93.914623
1823.000000	93.895479
1822.000000	93.949997
1821.000000	93.933169
1820.000000	93.922131
1819.000000	93.864410
1818.000000	93.857767
1817.000000	93.859000
1816.000000	93.894334
1815.000000	93.950407
1814.000000	93.953124
1813.000000	93.892221
1812.000000	93.899128
1811.000000	93.922667
1810.000000	93.919559
1809.000000	93.924175
1808.000000	93.904467
1807.000000	93.865729
1806.000000	93.926812
1805.000000	93.920148
1804.000000	93.913580
1803.000000	93.908888
1802.000000	93.896343
1801.000000	93.903964
1800.000000	93.934426
1799.000000	93.899145
1798.000000	93.935509
1797.000000	93.910115
1796.000000	93.917713
1795.000000	93.933478
1794.000000	93.890342
1793.000000	93.908274
1792.000000	93.918351
1791.000000	93.918012
1790.000000	93.870048
1789.000000	93.883382
1788.000000	93.893065
1787.000000	93.908529
1786.000000	93.919003
1785.000000	93.915541
1784.000000	93.925322
1783.000000	93.910625
1782.000000	93.927150
1781.000000	93.914767
1780.000000	93.888010
1779.000000	93.879518
1778.000000	93.908149
1777.000000	93.886235
1776.000000	93.914360
1775.000000	93.921732
1774.000000	93.914571
1773.000000	93.914226
1772.000000	93.917020
1771.000000	93.915837
1770.000000	93.920982
1769.000000	93.906327
1768.000000	93.922380
1767.000000	93.909973
1766.000000	93.904334
1765.000000	93.918664
1764.000000	93.899187
1763.000000	93.917146
1762.000000	93.926976
1761.000000	93.920711
1760.000000	93.922295
1759.000000	93.907393
1758.000000	93.933711
1757.000000	93.914301
1756.000000	93.913487
1755.000000	93.918645
1754.000000	93.920851
1753.000000	93.926852
1752.000000	93.927513
1751.000000	93.906483
1750.000000	93.913828
1749.000000	93.914635
1748.000000	93.908557
1747.000000	93.903371
1746.000000	93.933640
1745.000000	93.935930
1744.000000	93.932589
1743.000000	93.933674
1742.000000	93.919651
1741.000000	93.906843
1740.000000	93.888411
1739.000000	93.898179
1738.000000	93.901967
1737.000000	93.915434
1736.000000	93.924703
1735.000000	93.923536
1734.000000	93.913482
1733.000000	93.908716
1732.000000	93.924336
1731.000000	93.925838
1730.000000	93.913555
1729.000000	93.918880
1728.000000	93.906073
1727.000000	93.903791
1726.000000	93.909690
1725.000000	93.921496
1724.000000	93.930064
1723.000000	93.924513
1722.000000	93.924811
1721.000000	93.912448
1720.000000	93.911886
1719.000000	93.908054
1718.000000	93.914410
1717.000000	93.912915
1716.000000	93.912403
1715.000000	93.912629
1714.000000	93.929748
1713.000000	93.931530
1712.000000	93.936022
1711.000000	93.910357
1710.000000	93.907522
1709.000000	93.913471
1708.000000	93.911741
1707.000000	93.903067
1706.000000	93.900489
1705.000000	93.898180
1704.000000	93.890767
1703.000000	93.897686
1702.000000	93.901466
1701.000000	93.919967
1700.000000	93.918349
1699.000000	93.911379
1698.000000	93.912315
1697.000000	93.898025
1696.000000	93.901563
1695.000000	93.911692
1694.000000	93.912573
1693.000000	93.895777
1692.000000	93.903575
1691.000000	93.911590
1690.000000	93.904109
1689.000000	93.906405
1688.000000	93.894950
1687.000000	93.896291
1686.000000	93.887490
1685.000000	93.896800
1684.000000	93.916088
1683.000000	93.909554
1682.000000	93.926859
1681.000000	93.934036
1680.000000	93.922221
1679.000000	93.917276
1678.000000	93.921529
1677.000000	93.914975
1676.000000	93.908957
1675.000000	93.905433
1674.000000	93.902545
1673.000000	93.900135
1672.000000	93.902835
1671.000000	93.903450
1670.000000	93.904610
1669.000000	93.908204
1668.000000	93.906918
1667.000000	93.910668
1666.000000	93.902670
1665.000000	93.899844
1664.000000	93.912099
1663.000000	93.911011
1662.000000	93.908881
1661.000000	93.912020
1660.000000	93.904743
1659.000000	93.901946
1658.000000	93.897362
1657.000000	93.895355
1656.000000	93.898007
1655.000000	93.900024
1654.000000	93.910887
1653.000000	93.900402
1652.000000	93.902158
1651.000000	93.914899
1650.000000	93.907214
1649.000000	93.896209
1648.000000	93.885969
1647.000000	93.895101
1646.000000	93.912158
1645.000000	93.916464
1644.000000	93.910817
1643.000000	93.908507
1642.000000	93.910541
1641.000000	93.896566
1640.000000	93.886602
1639.000000	93.885195
1638.000000	93.888263
1637.000000	93.897076
1636.000000	93.916192
1635.000000	93.914092
1634.000000	93.906000
1633.000000	93.900979
1632.000000	93.899385
1631.000000	93.886047
1630.000000	93.878300
1629.000000	93.878201
1628.000000	93.885953
1627.000000	93.904354
1626.000000	93.927943
1625.000000	93.917766
1624.000000	93.904688
1623.000000	93.916085
1622.000000	93.920635
1621.000000	93.910977
1620.000000	93.885471
1619.000000	93.869853
1618.000000	93.866586
1617.000000	93.867728
1616.000000	93.883193
1615.000000	93.896420
1614.000000	93.900459
1613.000000	93.886429
1612.000000	93.886547
1611.000000	93.887210
1610.000000	93.891344
1609.000000	93.884853
1608.000000	93.891384
1607.000000	93.889009
1606.000000	93.887994
1605.000000	93.871683
1604.000000	93.868018
1603.000000	93.877940
1602.000000	93.887154
1601.000000	93.906855
1600.000000	93.905550
1599.000000	93.863194
1598.000000	93.854368
1597.000000	93.872959
1596.000000	93.881433
1595.000000	93.891632
1594.000000	93.901306
1593.000000	93.880034
1592.000000	93.868777
1591.000000	93.863739
1590.000000	93.861009
1589.000000	93.864888
1588.000000	93.870800
1587.000000	93.869949
1586.000000	93.882278
1585.000000	93.894323
1584.000000	93.890282
1583.000000	93.881934
1582.000000	93.867269
1581.000000	93.866972
1580.000000	93.887502
1579.000000	93.884338
1578.000000	93.886982
1577.000000	93.889650
1576.000000	93.894122
1575.000000	93.876610
1574.000000	93.862415
1573.000000	93.857110
1572.000000	93.849710
1571.000000	93.840866
1570.000000	93.855292
1569.000000	93.877441
1568.000000	93.886446
1567.000000	93.889164
1566.000000	93.888060
1565.000000	93.890741
1564.000000	93.877266
1563.000000	93.882729
1562.000000	93.867172
1561.000000	93.875105
1560.000000	93.880470
1559.000000	93.879651
1558.000000	93.854489
1557.000000	93.829725
1556.000000	93.858343
1555.000000	93.857433
1554.000000	93.875246
1553.000000	93.860906
1552.000000	93.870444
1551.000000	93.864669
1550.000000	93.870612
1549.000000	93.860671
1548.000000	93.864163
1547.000000	93.866341
1546.000000	93.874006
1545.000000	93.859145
1544.000000	93.845911
1543.000000	93.837691
1542.000000	93.858277
1541.000000	93.867242
1540.000000	93.861708
1539.000000	93.858547
1538.000000	93.865312
1537.000000	93.844328
1536.000000	93.845335
1535.000000	93.866971
1534.000000	93.852013
1533.000000	93.852584
1532.000000	93.858904
1531.000000	93.868576
1530.000000	93.853001
1529.000000	93.858504
1528.000000	93.845743
1527.000000	93.817797
1526.000000	93.847076
1525.000000	93.873646
1524.000000	93.864063
1523.000000	93.858705
1522.000000	93.851221
1521.000000	93.861604
1520.000000	93.848938
1519.000000	93.843406
1518.000000	93.834215
1517.000000	93.830687
1516.000000	93.834032
1515.000000	93.836495
1514.000000	93.860149
1513.000000	93.866232
1512.000000	93.850686
1511.000000	93.826130
1510.000000	93.842995
1509.000000	93.832414
1508.000000	93.827698
1507.000000	93.843493
1506.000000	93.873683
1505.000000	93.861927
1504.000000	93.844346
1503.000000	93.826860
1502.000000	93.830087
1501.000000	93.836010
1500.000000	93.827525
1499.000000	93.807636
1498.000000	93.815748
1497.000000	93.845259
1496.000000	93.838679
1495.000000	93.830955
1494.000000	93.851604
1493.000000	93.861195
1492.000000	93.837381
1491.000000	93.832695
1490.000000	93.831496
1489.000000	93.832230
1488.000000	93.835796
1487.000000	93.821575
1486.000000	93.822379
1485.000000	93.813617
1484.000000	93.817226
1483.000000	93.806654
1482.000000	93.809077
1481.000000	93.816002
1480.000000	93.829407
1479.000000	93.869554
1478.000000	93.813155
1477.000000	93.801844
1476.000000	93.808797
1475.000000	93.810405
1474.000000	93.822771
1473.000000	93.817528
1472.000000	93.818992
1471.000000	93.819106
1470.000000	93.814506
1469.000000	93.812452
1468.000000	93.811162
1467.000000	93.801084
1466.000000	93.768913
1465.000000	93.772980
1464.000000	93.786250
1463.000000	93.790258
1462.000000	93.813161
1461.000000	93.794818
1460.000000	93.788428
1459.000000	93.788507
1458.000000	93.777689
1457.000000	93.769264
1456.000000	93.761472
1455.000000	93.787059
1454.000000	93.822998
1453.000000	93.782380
1452.000000	93.761269
1451.000000	93.761072
1450.000000	93.778188
1449.000000	93.821130
1448.000000	93.747516
1447.000000	93.752923
1446.000000	93.819793
1445.000000	93.764028
1444.000000	93.716670
1443.000000	93.700954
1442.000000	93.737411
1441.000000	93.742503
1440.000000	93.723228
1439.000000	93.711254
1438.000000	93.704635
1437.000000	93.704658
1436.000000	93.710261
1435.000000	93.695693
1434.000000	93.688246
1433.000000	93.678930
1432.000000	93.676765
1431.000000	93.668173
1430.000000	93.654357
1429.000000	93.619859
1428.000000	93.586439
1427.000000	93.627489
1426.000000	93.621372
1425.000000	93.612495
1424.000000	93.594126
1423.000000	93.633449
1422.000000	93.652636
1421.000000	93.574728
1420.000000	93.559791
1419.000000	93.551297
1418.000000	93.532359
1417.000000	93.498529
1416.000000	93.474279
1415.000000	93.490277
1414.000000	93.504529
1413.000000	93.428095
1412.000000	93.357446
1411.000000	93.347790
1410.000000	93.338886
1409.000000	93.347454
1408.000000	93.316859
1407.000000	93.265984
1406.000000	93.223586
1405.000000	93.318349
1404.000000	93.312591
1403.000000	93.053291
1402.000000	92.996890
1401.000000	93.068051
1400.000000	93.045286
1399.000000	92.939713
1398.000000	92.825848
1397.000000	92.780880
1396.000000	92.764036
1395.000000	92.720515
1394.000000	92.603127
1393.000000	92.484842
1392.000000	92.413872
1391.000000	92.376434
1390.000000	92.266762
1389.000000	92.196418
1388.000000	92.201237
1387.000000	92.131023
1386.000000	92.053559
1385.000000	92.022875
1384.000000	92.032981
1383.000000	92.043842
1382.000000	92.052073
1381.000000	92.051358
1380.000000	92.122333
1379.000000	92.234434
1378.000000	92.363629
1377.000000	92.526479
1376.000000	92.693256
1375.000000	92.849046
1374.000000	92.985691
1373.000000	93.132542
1372.000000	93.251258
1371.000000	93.342656
1370.000000	93.407814
1369.000000	93.461193
1368.000000	93.514032
1367.000000	93.539567
1366.000000	93.544863
1365.000000	93.533513
1364.000000	93.571535
1363.000000	93.595824
1362.000000	93.632469
1361.000000	93.615195
1360.000000	93.589276
1359.000000	93.560440
1358.000000	93.610904
1357.000000	93.654732
1356.000000	93.682925
1355.000000	93.679737
1354.000000	93.695268
1353.000000	93.576420
1352.000000	93.631873
1351.000000	93.727902
1350.000000	93.657985
1349.000000	93.660572
1348.000000	93.697299
1347.000000	93.691970
1346.000000	93.690105
1345.000000	93.700751
1344.000000	93.686678
1343.000000	93.692208
1342.000000	93.687995
1341.000000	93.709798
1340.000000	93.740307
1339.000000	93.716317
1338.000000	93.712308
1337.000000	93.711201
1336.000000	93.712682
1335.000000	93.711797
1334.000000	93.733735
1333.000000	93.740979
1332.000000	93.730084
1331.000000	93.721142
1330.000000	93.721754
1329.000000	93.747722
1328.000000	93.767728
1327.000000	93.763379
1326.000000	93.771902
1325.000000	93.770806
1324.000000	93.773648
1323.000000	93.771919
1322.000000	93.759350
1321.000000	93.744274
1320.000000	93.750007
1319.000000	93.751817
1318.000000	93.759822
1317.000000	93.768591
1316.000000	93.792192
1315.000000	93.772581
1314.000000	93.771509
1313.000000	93.779878
1312.000000	93.776013
1311.000000	93.785354
1310.000000	93.791623
1309.000000	93.780900
1308.000000	93.785420
1307.000000	93.789927
1306.000000	93.774876
1305.000000	93.783963
1304.000000	93.774767
1303.000000	93.763197
1302.000000	93.764606
1301.000000	93.785094
1300.000000	93.788259
1299.000000	93.786809
1298.000000	93.781146
1297.000000	93.770154
1296.000000	93.759882
1295.000000	93.798795
1294.000000	93.793454
1293.000000	93.767015
1292.000000	93.775316
1291.000000	93.772321
1290.000000	93.790493
1289.000000	93.811902
1288.000000	93.807284
1287.000000	93.746225
1286.000000	93.763581
1285.000000	93.749011
1284.000000	93.796706
1283.000000	93.789761
1282.000000	93.784004
1281.000000	93.785736
1280.000000	93.756783
1279.000000	93.773364
1278.000000	93.770710
1277.000000	93.784103
1276.000000	93.756188
1275.000000	93.768365
1274.000000	93.772174
1273.000000	93.759892
1272.000000	93.767736
1271.000000	93.765955
1270.000000	93.775268
1269.000000	93.747947
1268.000000	93.770865
1267.000000	93.785584
1266.000000	93.743596
1265.000000	93.755314
1264.000000	93.756594
1263.000000	93.751806
1262.000000	93.756568
1261.000000	93.726165
1260.000000	93.743642
1259.000000	93.739161
1258.000000	93.757976
1257.000000	93.754793
1256.000000	93.735891
1255.000000	93.725095
1254.000000	93.702005
1253.000000	93.704355
1252.000000	93.721078
1251.000000	93.707664
1250.000000	93.735310
1249.000000	93.739149
1248.000000	93.716535
1247.000000	93.695751
1246.000000	93.707306
1245.000000	93.697317
1244.000000	93.698933
1243.000000	93.716501
1242.000000	93.718082
1241.000000	93.710811
1240.000000	93.719951
1239.000000	93.721761
1238.000000	93.716757
1237.000000	93.716408
1236.000000	93.743548
1235.000000	93.756496
1234.000000	93.776057
1233.000000	93.770585
1232.000000	93.763931
1231.000000	93.747869
1230.000000	93.780730
1229.000000	93.785929
1228.000000	93.769370
1227.000000	93.781549
1226.000000	93.780277
1225.000000	93.778898
1224.000000	93.783157
1223.000000	93.782915
1222.000000	93.788133
1221.000000	93.795252
1220.000000	93.782099
1219.000000	93.784981
1218.000000	93.779351
1217.000000	93.775844
1216.000000	93.792242
1215.000000	93.807553
1214.000000	93.779933
1213.000000	93.777390
1212.000000	93.766470
1211.000000	93.792455
1210.000000	93.792384
1209.000000	93.792682
1208.000000	93.773443
1207.000000	93.771226
1206.000000	93.788343
1205.000000	93.796993
1204.000000	93.795469
1203.000000	93.785426
1202.000000	93.792204
1201.000000	93.797314
1200.000000	93.780881
1199.000000	93.780539
1198.000000	93.780474
1197.000000	93.769787
1196.000000	93.783617
1195.000000	93.776428
1194.000000	93.773267
1193.000000	93.761462
1192.000000	93.756159
1191.000000	93.765679
1190.000000	93.782560
1189.000000	93.786730
1188.000000	93.767115
1187.000000	93.745922
1186.000000	93.744555
1185.000000	93.741698
1184.000000	93.724121
1183.000000	93.722505
1182.000000	93.743918
1181.000000	93.760957
1180.000000	93.762791
1179.000000	93.767756
1178.000000	93.767176
1177.000000	93.768631
1176.000000	93.756475
1175.000000	93.757439
1174.000000	93.764948
1173.000000	93.776703
1172.000000	93.768969
1171.000000	93.742267
1170.000000	93.726359
1169.000000	93.733470
1168.000000	93.735047
1167.000000	93.737482
1166.000000	93.739560
1165.000000	93.742012
1164.000000	93.756291
1163.000000	93.751201
1162.000000	93.754469
1161.000000	93.765597
1160.000000	93.761856
1159.000000	93.768353
1158.000000	93.775628
1157.000000	93.769633
1156.000000	93.758146
1155.000000	93.768694
1154.000000	93.772928
1153.000000	93.754634
1152.000000	93.720998
1151.000000	93.707242
1150.000000	93.725206
1149.000000	93.726195
1148.000000	93.723893
1147.000000	93.758639
1146.000000	93.783256
1145.000000	93.743087
1144.000000	93.737264
1143.000000	93.749270
1142.000000	93.719588
1141.000000	93.721694
1140.000000	93.744141
1139.000000	93.740453
1138.000000	93.737343
1137.000000	93.746661
1136.000000	93.750989
1135.000000	93.700665
1134.000000	93.700137
1133.000000	93.687691
1132.000000	93.711976
1131.000000	93.752103
1130.000000	93.737559
1129.000000	93.740145
1128.000000	93.750811
1127.000000	93.742838
1126.000000	93.728288
1125.000000	93.733586
1124.000000	93.744480
1123.000000	93.736099
1122.000000	93.742505
1121.000000	93.744394
1120.000000	93.748786
1119.000000	93.750719
1118.000000	93.750468
1117.000000	93.749703
1116.000000	93.746793
1115.000000	93.757095
1114.000000	93.754370
1113.000000	93.744052
1112.000000	93.738347
1111.000000	93.735534
1110.000000	93.729486
1109.000000	93.733598
1108.000000	93.741302
1107.000000	93.742438
1106.000000	93.740681
1105.000000	93.733041
1104.000000	93.724640
1103.000000	93.729626
1102.000000	93.726762
1101.000000	93.731339
1100.000000	93.728729
1099.000000	93.724245
1098.000000	93.723921
1097.000000	93.726214
1096.000000	93.740766
1095.000000	93.739809
1094.000000	93.741678
1093.000000	93.729771
1092.000000	93.732325
1091.000000	93.725890
1090.000000	93.726935
1089.000000	93.731618
1088.000000	93.735614
1087.000000	93.720664
1086.000000	93.719133
1085.000000	93.727449
1084.000000	93.732758
1083.000000	93.737967
1082.000000	93.714317
1081.000000	93.707920
1080.000000	93.717376
1079.000000	93.717789
1078.000000	93.716480
1077.000000	93.725379
1076.000000	93.732542
1075.000000	93.724000
1074.000000	93.712089
1073.000000	93.713839
1072.000000	93.717375
1071.000000	93.725982
1070.000000	93.735150
1069.000000	93.718929
1068.000000	93.716518
1067.000000	93.708683
1066.000000	93.709083
1065.000000	93.728638
1064.000000	93.739906
1063.000000	93.728679
1062.000000	93.736592
1061.000000	93.719563
1060.000000	93.717156
1059.000000	93.720658
1058.000000	93.707598
1057.000000	93.711141
1056.000000	93.724255
1055.000000	93.713649
1054.000000	93.709886
1053.000000	93.718058
1052.000000	93.711765
1051.000000	93.713799
1050.000000	93.710548
1049.000000	93.693309
1048.000000	93.698215
1047.000000	93.711939
1046.000000	93.704197
1045.000000	93.711708
1044.000000	93.704937
1043.000000	93.705062
1042.000000	93.734971
1041.000000	93.706987
1040.000000	93.697006
1039.000000	93.694132
1038.000000	93.680097
1037.000000	93.692120
1036.000000	93.721132
1035.000000	93.706819
1034.000000	93.705213
1033.000000	93.723058
1032.000000	93.715125
1031.000000	93.701031
1030.000000	93.701602
1029.000000	93.701332
1028.000000	93.688469
1027.000000	93.697515
1026.000000	93.701744
1025.000000	93.695901
1024.000000	93.694062
1023.000000	93.696740
1022.000000	93.689784
1021.000000	93.712895
1020.000000	93.693813
1019.000000	93.702263
1018.000000	93.711907
1017.000000	93.709250
1016.000000	93.690880
1015.000000	93.700846
1014.000000	93.712515
1013.000000	93.724517
1012.000000	93.684135
1011.000000	93.678443
1010.000000	93.700465
1009.000000	93.690936
1008.000000	93.696176
1007.000000	93.698085
1006.000000	93.691959
1005.000000	93.706384
1004.000000	93.695437
1003.000000	93.713196
1002.000000	93.688893
1001.000000	93.687026
1000.000000	93.692609
999.000000	93.702510
998.000000	93.697289
997.000000	93.698890
996.000000	93.697974
995.000000	93.692672
994.000000	93.706284
993.000000	93.695265
992.000000	93.710350
991.000000	93.683160
990.000000	93.676048
989.000000	93.693889
988.000000	93.678172
987.000000	93.658036
986.000000	93.694559
985.000000	93.694810
984.000000	93.706321
983.000000	93.703397
982.000000	93.682950
981.000000	93.693531
980.000000	93.697787
979.000000	93.702516
978.000000	93.675510
977.000000	93.698041
976.000000	93.690428
975.000000	93.689786
974.000000	93.687338
973.000000	93.693506
972.000000	93.688454
971.000000	93.693033
970.000000	93.692896
969.000000	93.697329
968.000000	93.692725
967.000000	93.685141
966.000000	93.689923
965.000000	93.659881
964.000000	93.646948
963.000000	93.665136
962.000000	93.668185
961.000000	93.663361
960.000000	93.681695
959.000000	93.675357
958.000000	93.675084
957.000000	93.674590
956.000000	93.676456
955.000000	93.683392
954.000000	93.629588
953.000000	93.648011
952.000000	93.694295
951.000000	93.663572
950.000000	93.635546
949.000000	93.628331
948.000000	93.657297
947.000000	93.676817
946.000000	93.655488
945.000000	93.650891
944.000000	93.613523
943.000000	93.652267
942.000000	93.656680
941.000000	93.642980
940.000000	93.652992
939.000000	93.658244
938.000000	93.662795
937.000000	93.689080
936.000000	93.688474
935.000000	93.674320
934.000000	93.646226
933.000000	93.659703
932.000000	93.682709
931.000000	93.708411
930.000000	93.671941
929.000000	93.656042
928.000000	93.669806
927.000000	93.685915
926.000000	93.681227
925.000000	93.671846
924.000000	93.642841
923.000000	93.657754
922.000000	93.675430
921.000000	93.708406
920.000000	93.676269
919.000000	93.671489
918.000000	93.650770
917.000000	93.679385
916.000000	93.692734
915.000000	93.688806
914.000000	93.690465
913.000000	93.669830
912.000000	93.641721
911.000000	93.666075
910.000000	93.651807
909.000000	93.654110
908.000000	93.659709
907.000000	93.673858
906.000000	93.665632
905.000000	93.636196
904.000000	93.669870
903.000000	93.676589
902.000000	93.671981
901.000000	93.667072
900.000000	93.672828
899.000000	93.672360
898.000000	93.671185
897.000000	93.688669
896.000000	93.684388
895.000000	93.665695
894.000000	93.661889
893.000000	93.670877
892.000000	93.683525
891.000000	93.676939
890.000000	93.661745
889.000000	93.658380
888.000000	93.674014
887.000000	93.678779
886.000000	93.665883
885.000000	93.657704
884.000000	93.653177
883.000000	93.658381
882.000000	93.661108
881.000000	93.668280
880.000000	93.665886
879.000000	93.650008
878.000000	93.614035
877.000000	93.618685
876.000000	93.647299
875.000000	93.655011
874.000000	93.657604
873.000000	93.655415
872.000000	93.685029
871.000000	93.671388
870.000000	93.653823
869.000000	93.655370
868.000000	93.663361
867.000000	93.658837
866.000000	93.649875
865.000000	93.654127
864.000000	93.648987
863.000000	93.643270
862.000000	93.642994
861.000000	93.653381
860.000000	93.522843
859.000000	93.370206
858.000000	93.418316
857.000000	93.396114
856.000000	93.350371
855.000000	93.457164
854.000000	93.388060
853.000000	93.383604
852.000000	93.423918
851.000000	93.328421
850.000000	93.366885
849.000000	93.446196
848.000000	93.452458
847.000000	93.380505
846.000000	93.376241
845.000000	93.347083
844.000000	93.380525
843.000000	93.392494
842.000000	93.369616
841.000000	93.373336
840.000000	93.373079
839.000000	93.367973
838.000000	93.335936
837.000000	93.412849
836.000000	93.437296
835.000000	93.379456
834.000000	93.399118
833.000000	93.346064
832.000000	93.323100
831.000000	93.414491
830.000000	93.413771
829.000000	93.366623
828.000000	93.349092
827.000000	93.366523
826.000000	93.406627
825.000000	93.397647
824.000000	93.426407
823.000000	93.381624
822.000000	93.413501
821.000000	93.397522
820.000000	93.408863
819.000000	93.407119
818.000000	93.405951
817.000000	93.389679
816.000000	93.437888
815.000000	93.397599
814.000000	93.381525
813.000000	93.411933
812.000000	93.401402
811.000000	93.376379
810.000000	93.373524
809.000000	93.431518
808.000000	93.372047
807.000000	93.377843
806.000000	93.372886
805.000000	93.391452
804.000000	93.386611
803.000000	93.401055
802.000000	93.364553
801.000000	93.410721
800.000000	93.387320
799.000000	93.304482
798.000000	93.370897
797.000000	93.385107
796.000000	93.372983
795.000000	93.413604
794.000000	93.325770
793.000000	93.350948
792.000000	93.381392
791.000000	93.391632
790.000000	93.347609
789.000000	93.347852
788.000000	93.374330
787.000000	93.329118
786.000000	93.362369
785.000000	93.407530
784.000000	93.371227
783.000000	93.362135
782.000000	93.330810
781.000000	93.379881
780.000000	93.422875
779.000000	93.407036
778.000000	93.354236
777.000000	93.363975
776.000000	93.343762
775.000000	93.345240
774.000000	93.364860
773.000000	93.352716
772.000000	93.418595
771.000000	93.367181
770.000000	93.355130
769.000000	93.318544
768.000000	93.368707
767.000000	93.353998
766.000000	93.354507
765.000000	93.399131
764.000000	93.367351
763.000000	93.340696
762.000000	93.386267
761.000000	93.407009
760.000000	93.296343
759.000000	93.310521
758.000000	93.341954
757.000000	93.332217
756.000000	93.328344
755.000000	93.370706
754.000000	93.307857
753.000000	93.369604
752.000000	93.365276
751.000000	93.316413
750.000000	93.361095
749.000000	93.367419
748.000000	93.301746
747.000000	93.341556
746.000000	93.328337
745.000000	93.345521
744.000000	93.346839
743.000000	93.311848
742.000000	93.292432
741.000000	93.362261
740.000000	93.351513
739.000000	93.316004
738.000000	93.376227
737.000000	93.360702
736.000000	93.317581
735.000000	93.365689
734.000000	93.332402
733.000000	93.349089
732.000000	93.394249
731.000000	93.392816
730.000000	93.299897
729.000000	93.310019
728.000000	93.320899
727.000000	93.360417
726.000000	93.337384
725.000000	93.340414
724.000000	93.328454
723.000000	93.366281
722.000000	93.310433
721.000000	93.283412
720.000000	93.342533
719.000000	93.383841
718.000000	93.306819
717.000000	93.291478
716.000000	93.322429
715.000000	93.311967
714.000000	93.348841
713.000000	93.338620
712.000000	93.310457
711.000000	93.319711
710.000000	93.318532
709.000000	93.339659
708.000000	93.370173
707.000000	93.325423
706.000000	93.304823
705.000000	93.325428
704.000000	93.302347
703.000000	93.308244
702.000000	93.346003
701.000000	93.319656
700.000000	93.305416
699.000000	93.299975
698.000000	93.303388
697.000000	93.302201
696.000000	93.327186
695.000000	93.310057
694.000000	93.299139
693.000000	93.306411
692.000000	93.315066
691.000000	93.338761
690.000000	93.357403
689.000000	93.332303
688.000000	93.289401
687.000000	93.320269
686.000000	93.332589
685.000000	93.299020
684.000000	93.314933
683.000000	93.354132
682.000000	93.303271
681.000000	93.287310
680.000000	93.274100
679.000000	93.294504
678.000000	93.332880
677.000000	93.326571
676.000000	93.290469
675.000000	93.303484
674.000000	93.269476
673.000000	93.309131
672.000000	93.340970
671.000000	93.296550
670.000000	93.246637
669.000000	93.296992
668.000000	93.280039
667.000000	93.325128
666.000000	93.318487
665.000000	93.313277
664.000000	93.272440
663.000000	93.303136
662.000000	93.282306
661.000000	93.272207
660.000000	93.319032
659.000000	93.295653
658.000000	93.280779
657.000000	93.280862
656.000000	93.282216
655.000000	93.310090
654.000000	93.320075
653.000000	93.283648
652.000000	93.249324
651.000000	93.264399
650.000000	93.255548
649.000000	93.277168
648.000000	93.339915
647.000000	93.320514
646.000000	93.297664
645.000000	93.299310
644.000000	93.287738
643.000000	93.278605
642.000000	93.289988
641.000000	93.281506
640.000000	93.281093
639.000000	93.314699
638.000000	93.287466
637.000000	93.294022
636.000000	93.319100
635.000000	93.284052
634.000000	93.267746
633.000000	93.281392
632.000000	93.286218
631.000000	93.288030
630.000000	93.298194
629.000000	93.296179
628.000000	93.270294
627.000000	93.254772
626.000000	93.264800
625.000000	93.270550
624.000000	93.269886
623.000000	93.258603
622.000000	93.262162
621.000000	93.261183
620.000000	93.247118
619.000000	93.262395
618.000000	93.289777
617.000000	93.275688
616.000000	93.255338
615.000000	93.263079
614.000000	93.256097
613.000000	93.260469
612.000000	93.293365
611.000000	93.273731
610.000000	93.238081
609.000000	93.274849
608.000000	93.261260
607.000000	93.249985
606.000000	93.288377
605.000000	93.251576
604.000000	93.219650
603.000000	93.242204
602.000000	93.251269
601.000000	93.251381
600.000000	93.279213
599.000000	93.261966
598.000000	93.254279
597.000000	93.262435
596.000000	93.251008
595.000000	93.274991
594.000000	93.277082
593.000000	93.244525
592.000000	93.245353
591.000000	93.251094
590.000000	93.234628
589.000000	93.250417
588.000000	93.253368
587.000000	93.210001
586.000000	93.212726
585.000000	93.226504
584.000000	93.219126
583.000000	93.254764
582.000000	93.235242
581.000000	93.218441
580.000000	93.218241
579.000000	93.224586
578.000000	93.222554
577.000000	93.231388
576.000000	93.242969
575.000000	93.211470
574.000000	93.207911
573.000000	93.210524
572.000000	93.224551
571.000000	93.246238
570.000000	93.237120
569.000000	93.189919
568.000000	93.194869
567.000000	93.203896
566.000000	93.228843
565.000000	93.240181
564.000000	93.233040
563.000000	93.200618
562.000000	93.204828
561.000000	93.209710
560.000000	93.206260
559.000000	93.207098
558.000000	93.216509
557.000000	93.216040
556.000000	93.242702
555.000000	93.234305
554.000000	93.219365
553.000000	93.210837
552.000000	93.204530
551.000000	93.193161
550.000000	93.222445
549.000000	93.241959
548.000000	93.206655
547.000000	93.196499
546.000000	93.191527
545.000000	93.192302
544.000000	93.217154
543.000000	93.246465
542.000000	93.198048
541.000000	93.195161
540.000000	93.215566
539.000000	93.196681
538.000000	93.201936
537.000000	93.214256
536.000000	93.198084
535.000000	93.198026
534.000000	93.206182
533.000000	93.207992
532.000000	93.178882
531.000000	93.212283
530.000000	93.176108
529.000000	93.160343
528.000000	93.215441
527.000000	93.172592
526.000000	93.192595
525.000000	93.211033
524.000000	93.169062
523.000000	93.163005
522.000000	93.199369
521.000000	93.183821
520.000000	93.213711
519.000000	93.192667
518.000000	93.182369
517.000000	93.174319
516.000000	93.189700
515.000000	93.157339
514.000000	93.171257
513.000000	93.191388
512.000000	93.149880
511.000000	93.175020
510.000000	93.159718
509.000000	93.153188
508.000000	93.145009
507.000000	93.182327
506.000000	93.151730
505.000000	93.143992
504.000000	93.154396
503.000000	93.139114
502.000000	93.192821
501.000000	93.153994
500.000000	93.117359
499.000000	93.128955
498.000000	93.100841
497.000000	93.144617
496.000000	93.142924
495.000000	93.127779
494.000000	93.088836
493.000000	93.104043
492.000000	93.143733
491.000000	93.151021
490.000000	93.126400
489.000000	93.144614
488.000000	93.111805
487.000000	93.064731
486.000000	93.101504
485.000000	93.092886
484.000000	93.131365
483.000000	93.107723
482.000000	93.092546
481.000000	93.081896
480.000000	93.088662
479.000000	93.086822
478.000000	93.112876
477.000000	93.119677
476.000000	93.085013
475.000000	93.091353
474.000000	93.091999
473.000000	93.109267
472.000000	93.094766
471.000000	93.066474
470.000000	93.049552
469.000000	93.090784
468.000000	93.120276
467.000000	93.086099
466.000000	93.097089
465.000000	93.142060
464.000000	93.057908
463.000000	93.063476
462.000000	93.052733
461.000000	93.049638
460.000000	93.102800
459.000000	93.062509
458.000000	93.041930
457.000000	93.037451
456.000000	93.067590
455.000000	93.026880
454.000000	93.061867
453.000000	93.050624
452.000000	93.065931
451.000000	93.057236
450.000000	93.049001
449.000000	93.014857
448.000000	93.066261
447.000000	93.077980
446.000000	93.016302
445.000000	93.026511
444.000000	93.026212
443.000000	93.036102
442.000000	93.031704
441.000000	93.030876
440.000000	92.996176
439.000000	93.020325
438.000000	93.042116
437.000000	93.020835
436.000000	93.043873
435.000000	93.024459
434.000000	92.990321
433.000000	93.007422
432.000000	92.985049
431.000000	93.005850
430.000000	93.025994
429.000000	92.992212
428.000000	92.998557
427.000000	92.985066
426.000000	92.970476
425.000000	92.960895
424.000000	92.999316
423.000000	93.020293
422.000000	92.976534
421.000000	92.963371
420.000000	92.967798
419.000000	92.981944
418.000000	92.994302
417.000000	92.945844
416.000000	92.952007
415.000000	92.943034
414.000000	92.949862
413.000000	92.936783
412.000000	92.967434
411.000000	92.971447
410.000000	92.928831
409.000000	92.919046
408.000000	92.946726
407.000000	92.911597
406.000000	92.948426
405.000000	92.961327
404.000000	92.899621
403.000000	92.901332
402.000000	92.926917
401.000000	92.937861
400.000000	92.937667
399.000000	92.920528
398.000000	92.892044
397.000000	92.909828
396.000000	92.914878
395.000000	92.867354
394.000000	92.900632
393.000000	92.861895
392.000000	92.830284
391.000000	92.856106
390.000000	92.869319
389.000000	92.860009
388.000000	92.886420
387.000000	92.867730
386.000000	92.817548
385.000000	92.798304
384.000000	92.799608
383.000000	92.850896
382.000000	92.871719
381.000000	92.852089
380.000000	92.825971
379.000000	92.838113
378.000000	92.863815
377.000000	92.857926
376.000000	92.846552
375.000000	92.815447
374.000000	92.761730
373.000000	92.764259
372.000000	92.824349
371.000000	92.810474
370.000000	92.796074
369.000000	92.806229
368.000000	92.788803
367.000000	92.779838
366.000000	92.794084
365.000000	92.774177
364.000000	92.749327
363.000000	92.753946
362.000000	92.768084
361.000000	92.755500
360.000000	92.764938
359.000000	92.760820
358.000000	92.742025
357.000000	92.725682
356.000000	92.719603
355.000000	92.715741
354.000000	92.713239
353.000000	92.715286
352.000000	92.708385
351.000000	92.687181
350.000000	92.671109
349.000000	92.681590
348.000000	92.674968
347.000000	92.673563
346.000000	92.663314
345.000000	92.657257
344.000000	92.677214
343.000000	92.676916
342.000000	92.670593
341.000000	92.649294
340.000000	92.628943
339.000000	92.603614
338.000000	92.601133
337.000000	92.607524
336.000000	92.612163
335.000000	92.604956
334.000000	92.576505
333.000000	92.578222
332.000000	92.599672
331.000000	92.590401
330.000000	92.575471
329.000000	92.567881
328.000000	92.555869
327.000000	92.575817
326.000000	92.578540
325.000000	92.560349
324.000000	92.540963
323.000000	92.493311
322.000000	92.468686
321.000000	92.495966
320.000000	92.482105
319.000000	92.474778
318.000000	92.502759
317.000000	92.522251
316.000000	92.520378
315.000000	92.507281
314.000000	92.468919
313.000000	92.483943
312.000000	92.497364
311.000000	92.488129
310.000000	92.450599
309.000000	92.428242
308.000000	92.434861
307.000000	92.422405
306.000000	92.413972
305.000000	92.395487
304.000000	92.391400
303.000000	92.383455
302.000000	92.347704
301.000000	92.361550
300.000000	92.403019
299.000000	92.364891
298.000000	92.331210
297.000000	92.323434
296.000000	92.297226
295.000000	92.289234
294.000000	92.295895
293.000000	92.270648
292.000000	92.233229
291.000000	92.248537
290.000000	92.237388
289.000000	92.250865
288.000000	92.222600
287.000000	92.174684
286.000000	92.164953
285.000000	92.188458
284.000000	92.161169
283.000000	92.154334
282.000000	92.131796
281.000000	92.117821
280.000000	92.116875
279.000000	92.105956
278.000000	92.095788
277.000000	92.093779
276.000000	92.086821
275.000000	92.051307
274.000000	92.031540
273.000000	92.052919
272.000000	92.015718
271.000000	92.007829
270.000000	92.031313
269.000000	91.955512
268.000000	91.941086
267.000000	91.894906
266.000000	91.899172
265.000000	91.892871
264.000000	91.936851
263.000000	91.919612
262.000000	91.848586
261.000000	91.836668
260.000000	91.879136
259.000000	91.860647
258.000000	91.877646
257.000000	91.822827
256.000000	91.759793
255.000000	91.776655
254.000000	91.759569
253.000000	91.764559
252.000000	91.729313
251.000000	91.677566
250.000000	91.687762
